	Experiment	Participant	Trial	SubTrial	Condition	CuedHalf	Congruency	Alignment	SameDifferent	FaceGroup	StudyUpper	StudyLower	TargetUpper	TargetLower	thisResponse	isCorrect	reactionTime	studyDuration	targetDuration	maskDuration	trialEndTime
0	109_cue	10	1		Complete_cue	T	I	M	D	M5	M5185.png	M5159.png	M5116.png	M5159.png	S	0	1.0185051102064335	0.2	infinite	0.5	2019-07-12-13:16:35
1	109_cue	10	2		Complete_cue	T	I	M	D	F5	F5163.png	F5158.png	F5136.png	F5158.png	D	1	1.328796131648005	0.2	infinite	0.5	2019-07-12-13:16:39
2	109_cue	10	3		Complete_cue	T	I	M	S	M2	M2134.png	M2161.png	M2134.png	M2127.png	S	1	2.118122939452178	0.2	infinite	0.5	2019-07-12-13:16:44
3	109_cue	10	4		Complete_cue	B	I	A	D	M4	M4147.png	M4115.png	M4147.png	M4114.png	S	0	1.3052435316005813	0.2	infinite	0.5	2019-07-12-13:16:48
4	109_cue	10	5		Complete_cue	T	I	A	S	M5	M5159.png	M5126.png	M5159.png	M5116.png	D	0	0.8316254399392164	0.2	infinite	0.5	2019-07-12-13:16:51
5	109_cue	10	6		Complete_cue	T	C	A	D	M2	M2134.png	M2161.png	M2127.png	M2118.png	S	0	1.1006979676908486	0.2	infinite	0.5	2019-07-12-13:16:55
6	109_cue	10	7		Complete_cue	B	I	A	D	M5	M5159.png	M5126.png	M5159.png	M5116.png	D	1	3.7519925779379264	0.2	infinite	0.5	2019-07-12-13:17:02
7	109_cue	10	8		Complete_cue	T	C	M	S	M2	M2134.png	M2161.png	M2134.png	M2161.png	S	1	1.5005804902039017	0.2	infinite	0.5	2019-07-12-13:17:06
8	109_cue	10	9		Complete_cue	T	I	A	S	M1	M1190.png	M1119.png	M1190.png	M1173.png	D	0	1.254267541342415	0.2	infinite	0.5	2019-07-12-13:17:10
9	109_cue	10	10		Complete_cue	B	C	A	D	M3	M3138.png	M3186.png	M3124.png	M3174.png	D	1	1.5850340354286345	0.2	infinite	0.5	2019-07-12-13:17:14
10	109_cue	10	11		Complete_cue	B	I	A	D	F2	F2111.png	F2171.png	F2111.png	F2168.png	D	1	1.780112748873762	0.2	infinite	0.5	2019-07-12-13:17:19
11	109_cue	10	12		Complete_cue	T	I	A	D	F2	F2177.png	F2111.png	F2168.png	F2111.png	S	0	1.0955988288180833	0.2	infinite	0.5	2019-07-12-13:17:23
12	109_cue	10	13		Complete_cue	T	C	A	S	F5	F5158.png	F5139.png	F5158.png	F5139.png	S	1	0.9420767337794587	0.2	infinite	0.5	2019-07-12-13:17:26
13	109_cue	10	14		Complete_cue	T	I	M	S	F4	F4108.png	F4179.png	F4108.png	F4113.png	S	1	1.6807862073346769	0.2	infinite	0.5	2019-07-12-13:17:31
14	109_cue	10	15		Complete_cue	T	C	A	D	M4	M4114.png	M4183.png	M4147.png	M4115.png	D	1	0.8000521623139321	0.2	infinite	0.5	2019-07-12-13:17:34
15	109_cue	10	16		Complete_cue	T	I	M	S	F3	F3132.png	F3130.png	F3132.png	F3146.png	S	1	2.296471857854158	0.2	infinite	0.5	2019-07-12-13:17:39
16	109_cue	10	17		Complete_cue	T	C	M	D	M4	M4115.png	M4114.png	M4183.png	M4147.png	D	1	2.6116637628790613	0.2	infinite	0.5	2019-07-12-13:17:45
17	109_cue	10	18		Complete_cue	B	I	M	D	F2	F2171.png	F2168.png	F2171.png	F2177.png	D	1	1.2217389170320985	0.2	infinite	0.5	2019-07-12-13:17:49
18	109_cue	10	19		Complete_cue	B	C	M	S	F3	F3146.png	F3184.png	F3146.png	F3184.png	D	0	0.7890736954689146	0.2	infinite	0.5	2019-07-12-13:17:52
19	109_cue	10	20		Complete_cue	B	C	M	D	M4	M4183.png	M4147.png	M4115.png	M4114.png	D	1	0.7504517686263625	0.2	infinite	0.5	2019-07-12-13:17:56
20	109_cue	10	21		Complete_cue	B	C	M	D	F1	F1157.png	F1162.png	F1141.png	F1154.png	D	1	0.5134911441157328	0.2	infinite	0.5	2019-07-12-13:17:59
21	109_cue	10	22		Complete_cue	T	C	A	S	F5	F5163.png	F5158.png	F5163.png	F5158.png	S	1	1.9382752367273497	0.2	infinite	0.5	2019-07-12-13:18:04
22	109_cue	10	23		Complete_cue	B	C	A	D	M5	M5126.png	M5116.png	M5185.png	M5159.png	D	1	0.5280362813596184	0.2	infinite	0.5	2019-07-12-13:18:07
23	109_cue	10	24		Complete_cue	T	C	M	D	M1	M1119.png	M1173.png	M1110.png	M1190.png	S	0	0.8077061638466603	0.2	infinite	0.5	2019-07-12-13:18:11
24	109_cue	10	25		Complete_cue	B	I	A	S	F1	F1141.png	F1154.png	F1162.png	F1154.png	S	1	0.7239118655791117	0.2	infinite	0.5	2019-07-12-13:18:14
25	109_cue	10	26		Complete_cue	B	C	M	S	M1	M1190.png	M1119.png	M1190.png	M1119.png	D	0	0.5698607689673736	0.2	infinite	0.5	2019-07-12-13:18:18
26	109_cue	10	27		Complete_cue	T	I	A	D	F2	F2111.png	F2171.png	F2177.png	F2171.png	S	0	2.142568971507444	0.2	infinite	0.5	2019-07-12-13:18:23
27	109_cue	10	28		Complete_cue	B	C	A	D	M3	M3124.png	M3174.png	M3138.png	M3186.png	D	1	0.582915462725623	0.2	infinite	0.5	2019-07-12-13:18:26
28	109_cue	10	29		Complete_cue	T	I	A	S	F3	F3130.png	F3146.png	F3130.png	F3184.png	S	1	0.9921422895533851	0.2	infinite	0.5	2019-07-12-13:18:30
29	109_cue	10	30		Complete_cue	B	C	M	S	M5	M5116.png	M5185.png	M5116.png	M5185.png	S	1	0.7400526691801588	0.2	infinite	0.5	2019-07-12-13:18:33
30	109_cue	10	31		Complete_cue	T	I	A	S	M3	M3124.png	M3174.png	M3124.png	M3138.png	D	0	0.4622399062234308	0.2	infinite	0.5	2019-07-12-13:18:36
31	109_cue	10	32		Complete_cue	T	C	A	D	F3	F3184.png	F3132.png	F3130.png	F3146.png	S	0	0.7904608408912281	0.2	infinite	0.5	2019-07-12-13:18:40
32	109_cue	10	33		Complete_cue	B	I	A	S	F3	F3146.png	F3184.png	F3130.png	F3184.png	D	0	0.612601786286632	0.2	infinite	0.5	2019-07-12-13:18:43
33	109_cue	10	34		Complete_cue	T	I	A	D	M5	M5185.png	M5159.png	M5116.png	M5159.png	D	1	0.4401498399361117	0.2	infinite	0.5	2019-07-12-13:18:47
34	109_cue	10	35		Complete_cue	B	C	M	S	M2	M2134.png	M2161.png	M2134.png	M2161.png	D	0	0.7301511327659682	0.2	infinite	0.5	2019-07-12-13:18:50
35	109_cue	10	36		Complete_cue	T	I	A	S	M5	M5116.png	M5185.png	M5116.png	M5159.png	D	0	0.6958582975814807	0.2	infinite	0.5	2019-07-12-13:18:53
36	109_cue	10	37		Complete_cue	T	I	A	D	M5	M5116.png	M5185.png	M5126.png	M5185.png	S	0	0.5887816378390198	0.2	infinite	0.5	2019-07-12-13:18:57
37	109_cue	10	38		Complete_cue	B	C	A	D	F3	F3184.png	F3132.png	F3130.png	F3146.png	S	0	0.7643216188409951	0.2	infinite	0.5	2019-07-12-13:19:00
38	109_cue	10	39		Complete_cue	T	C	A	D	M5	M5126.png	M5116.png	M5185.png	M5159.png	S	0	0.6869994896048865	0.2	infinite	0.5	2019-07-12-13:19:04
39	109_cue	10	40		Complete_cue	T	C	M	D	F4	F4179.png	F4113.png	F4176.png	F4108.png	D	1	0.5025989728578679	0.2	infinite	0.5	2019-07-12-13:19:07
40	109_cue	10	41		Complete_cue	B	I	M	D	F1	F1162.png	F1141.png	F1162.png	F1154.png	D	1	4.419356132264056	0.2	infinite	0.5	2019-07-12-13:19:34
41	109_cue	10	42		Complete_cue	B	I	M	D	M1	M1190.png	M1119.png	M1190.png	M1173.png	D	1	1.2840029475237316	0.2	infinite	0.5	2019-07-12-13:19:38
42	109_cue	10	43		Complete_cue	T	I	A	S	M2	M2118.png	M2134.png	M2118.png	M2161.png	D	0	1.2010109736547747	0.2	infinite	0.5	2019-07-12-13:19:42
43	109_cue	10	44		Complete_cue	B	I	A	S	M3	M3138.png	M3186.png	M3174.png	M3186.png	D	0	1.2417360747313069	0.2	infinite	0.5	2019-07-12-13:19:46
44	109_cue	10	45		Complete_cue	B	I	M	D	F3	F3184.png	F3132.png	F3184.png	F3130.png	S	0	3.12023124650932	0.2	infinite	0.5	2019-07-12-13:19:52
45	109_cue	10	46		Complete_cue	B	C	M	D	F1	F1154.png	F1157.png	F1162.png	F1141.png	D	1	0.6700971033874339	0.2	infinite	0.5	2019-07-12-13:19:55
46	109_cue	10	47		Complete_cue	T	C	A	S	M3	M3138.png	M3186.png	M3138.png	M3186.png	S	1	0.4416409250243305	0.2	infinite	0.5	2019-07-12-13:19:58
47	109_cue	10	48		Complete_cue	B	I	A	S	F3	F3184.png	F3132.png	F3146.png	F3132.png	S	1	0.7542991402842745	0.2	infinite	0.5	2019-07-12-13:20:02
48	109_cue	10	49		Complete_cue	B	C	M	S	M3	M3138.png	M3186.png	M3138.png	M3186.png	S	1	0.3504120534082631	0.2	infinite	0.5	2019-07-12-13:20:05
49	109_cue	10	50		Complete_cue	B	I	A	S	F4	F4113.png	F4176.png	F4179.png	F4176.png	S	1	0.739197733345236	0.2	infinite	0.5	2019-07-12-13:20:08
50	109_cue	10	51		Complete_cue	B	I	A	D	F3	F3184.png	F3132.png	F3184.png	F3130.png	D	1	0.8693115889841465	0.2	infinite	0.5	2019-07-12-13:20:12
51	109_cue	10	52		Complete_cue	T	I	M	D	M2	M2118.png	M2134.png	M2127.png	M2134.png	S	0	1.2130852982154465	0.2	infinite	0.5	2019-07-12-13:20:16
52	109_cue	10	53		Complete_cue	T	C	M	S	M2	M2161.png	M2127.png	M2161.png	M2127.png	S	1	1.0353526393778338	0.2	infinite	0.5	2019-07-12-13:20:20
53	109_cue	10	54		Complete_cue	B	C	M	S	M1	M1119.png	M1173.png	M1119.png	M1173.png	D	0	0.8955739987866309	0.2	infinite	0.5	2019-07-12-13:20:24
54	109_cue	10	55		Complete_cue	B	I	M	S	M4	M4183.png	M4147.png	M4114.png	M4147.png	D	0	0.5483051578776212	0.2	infinite	0.5	2019-07-12-13:20:27
55	109_cue	10	56		Complete_cue	B	I	M	S	F4	F4113.png	F4176.png	F4179.png	F4176.png	D	0	1.7098164919530063	0.2	infinite	0.5	2019-07-12-13:20:31
56	109_cue	10	57		Complete_cue	T	I	M	S	M2	M2127.png	M2118.png	M2127.png	M2134.png	D	0	0.5371640447028767	0.2	infinite	0.5	2019-07-12-13:20:35
57	109_cue	10	58		Complete_cue	T	C	M	D	M2	M2127.png	M2118.png	M2134.png	M2161.png	D	1	0.702823020582855	0.2	infinite	0.5	2019-07-12-13:20:38
58	109_cue	10	59		Complete_cue	T	I	A	D	F5	F5136.png	F5163.png	F5139.png	F5163.png	D	1	0.7437303368767516	0.2	infinite	0.5	2019-07-12-13:20:42
59	109_cue	10	60		Complete_cue	T	I	M	D	M5	M5116.png	M5185.png	M5126.png	M5185.png	S	0	0.6352247037639245	0.2	infinite	0.5	2019-07-12-13:20:45
60	109_cue	10	61		Complete_cue	T	C	M	D	M5	M5116.png	M5185.png	M5159.png	M5126.png	D	1	0.7048562601030426	0.2	infinite	0.5	2019-07-12-13:20:49
61	109_cue	10	62		Complete_cue	T	C	M	S	F3	F3184.png	F3132.png	F3184.png	F3132.png	D	0	0.7764508004477193	0.2	infinite	0.5	2019-07-12-13:20:52
62	109_cue	10	63		Complete_cue	T	C	M	D	M1	M1173.png	M1110.png	M1190.png	M1119.png	S	0	0.6263263134494537	0.2	infinite	0.5	2019-07-12-13:20:55
63	109_cue	10	64		Complete_cue	T	C	M	S	M3	M3138.png	M3186.png	M3138.png	M3186.png	D	0	0.7151145277177875	0.2	infinite	0.5	2019-07-12-13:20:59
64	109_cue	10	65		Complete_cue	T	I	M	S	M2	M2118.png	M2134.png	M2118.png	M2161.png	D	0	0.48234902362469256	0.2	infinite	0.5	2019-07-12-13:21:02
65	109_cue	10	66		Complete_cue	T	I	M	S	M5	M5159.png	M5126.png	M5159.png	M5116.png	D	0	0.544715389775547	0.2	infinite	0.5	2019-07-12-13:21:06
66	109_cue	10	67		Complete_cue	T	C	M	S	F3	F3130.png	F3146.png	F3130.png	F3146.png	S	1	1.014989126435239	0.2	infinite	0.5	2019-07-12-13:21:09
67	109_cue	10	68		Complete_cue	T	C	M	S	F1	F1162.png	F1141.png	F1162.png	F1141.png	D	0	0.6267914755358106	0.2	infinite	0.5	2019-07-12-13:21:13
68	109_cue	10	69		Complete_cue	T	I	M	D	F3	F3130.png	F3146.png	F3132.png	F3146.png	D	1	0.4756032109658008	0.2	infinite	0.5	2019-07-12-13:21:16
69	109_cue	10	70		Complete_cue	B	C	A	D	M3	M3174.png	M3138.png	M3186.png	M3124.png	D	1	0.7693315749136218	0.2	infinite	0.5	2019-07-12-13:21:19
70	109_cue	10	71		Complete_cue	B	C	A	D	F4	F4108.png	F4179.png	F4113.png	F4176.png	D	1	0.7771456563643824	0.2	infinite	0.5	2019-07-12-13:21:23
71	109_cue	10	72		Complete_cue	T	I	M	S	M4	M4115.png	M4114.png	M4115.png	M4183.png	D	0	0.4147991478230324	0.2	infinite	0.5	2019-07-12-13:21:26
72	109_cue	10	73		Complete_cue	B	I	M	D	M1	M1119.png	M1173.png	M1119.png	M1110.png	D	1	0.5737646016784765	0.2	infinite	0.5	2019-07-12-13:21:30
73	109_cue	10	74		Complete_cue	B	I	A	S	F5	F5136.png	F5163.png	F5139.png	F5163.png	S	1	0.6147671959997751	0.2	infinite	0.5	2019-07-12-13:21:33
74	109_cue	10	75		Complete_cue	B	I	A	S	F1	F1157.png	F1162.png	F1154.png	F1162.png	D	0	0.42935166349980136	0.2	infinite	0.5	2019-07-12-13:21:36
75	109_cue	10	76		Complete_cue	B	I	M	S	M5	M5159.png	M5126.png	M5185.png	M5126.png	D	0	0.7697547120117179	0.2	infinite	0.5	2019-07-12-13:21:40
76	109_cue	10	77		Complete_cue	T	I	A	D	F1	F1154.png	F1157.png	F1141.png	F1157.png	D	1	1.1548688194795886	0.2	infinite	0.5	2019-07-12-13:21:44
77	109_cue	10	78		Complete_cue	B	C	A	D	F2	F2111.png	F2171.png	F2168.png	F2177.png	D	1	0.4876233200832303	0.2	infinite	0.5	2019-07-12-13:21:47
78	109_cue	10	79		Complete_cue	B	C	M	S	F2	F2177.png	F2111.png	F2177.png	F2111.png	D	0	0.6754140664372699	0.2	infinite	0.5	2019-07-12-13:21:50
79	109_cue	10	80		Complete_cue	T	C	A	D	F5	F5139.png	F5136.png	F5163.png	F5158.png	D	1	0.4023825281271911	0.2	infinite	0.5	2019-07-12-13:21:53
80	109_cue	10	81		Complete_cue	T	C	M	D	M1	M1190.png	M1119.png	M1173.png	M1110.png	D	1	0.3622759322249749	0.2	infinite	0.5	2019-07-12-13:22:09
81	109_cue	10	82		Complete_cue	B	C	M	S	M5	M5185.png	M5159.png	M5185.png	M5159.png	D	0	0.36260539530280766	0.2	infinite	0.5	2019-07-12-13:22:12
82	109_cue	10	83		Complete_cue	T	C	A	D	F4	F4108.png	F4179.png	F4113.png	F4176.png	D	1	0.4153547759153753	0.2	infinite	0.5	2019-07-12-13:22:15
83	109_cue	10	84		Complete_cue	B	I	A	S	M2	M2161.png	M2127.png	M2134.png	M2127.png	S	1	0.8181450426714036	0.2	infinite	0.5	2019-07-12-13:22:19
84	109_cue	10	85		Complete_cue	B	C	M	D	M3	M3138.png	M3186.png	M3124.png	M3174.png	D	1	0.4161834060323599	0.2	infinite	0.5	2019-07-12-13:22:22
85	109_cue	10	86		Complete_cue	T	C	A	D	F2	F2111.png	F2171.png	F2168.png	F2177.png	D	1	0.3945678050733932	0.2	infinite	0.5	2019-07-12-13:22:25
86	109_cue	10	87		Complete_cue	T	I	A	S	M4	M4114.png	M4183.png	M4114.png	M4147.png	D	0	0.8176699357402413	0.2	infinite	0.5	2019-07-12-13:22:28
87	109_cue	10	88		Complete_cue	T	C	M	S	F1	F1141.png	F1154.png	F1141.png	F1154.png	S	1	0.6620565361208719	0.2	infinite	0.5	2019-07-12-13:22:32
88	109_cue	10	89		Complete_cue	B	I	A	D	F1	F1157.png	F1162.png	F1157.png	F1141.png	D	1	0.498953064503894	0.2	infinite	0.5	2019-07-12-13:22:35
89	109_cue	10	90		Complete_cue	B	I	A	D	F5	F5139.png	F5136.png	F5139.png	F5163.png	D	1	0.44970908121513276	0.2	infinite	0.5	2019-07-12-13:22:38
90	109_cue	10	91		Complete_cue	B	I	M	S	M1	M1173.png	M1110.png	M1119.png	M1110.png	D	0	0.5820547524649555	0.2	infinite	0.5	2019-07-12-13:22:42
91	109_cue	10	92		Complete_cue	B	I	M	D	F1	F1154.png	F1157.png	F1154.png	F1162.png	D	1	0.6072764823993566	0.2	infinite	0.5	2019-07-12-13:22:45
92	109_cue	10	93		Complete_cue	T	C	A	D	F3	F3132.png	F3130.png	F3146.png	F3184.png	D	1	0.5312038747679253	0.2	infinite	0.5	2019-07-12-13:22:48
93	109_cue	10	94		Complete_cue	B	C	M	D	M5	M5116.png	M5185.png	M5159.png	M5126.png	D	1	0.524114162966498	0.2	infinite	0.5	2019-07-12-13:22:52
94	109_cue	10	95		Complete_cue	B	C	M	S	M1	M1173.png	M1110.png	M1173.png	M1110.png	D	0	0.7490983073553252	0.2	infinite	0.5	2019-07-12-13:22:55
95	109_cue	10	96		Complete_cue	T	I	A	D	F1	F1157.png	F1162.png	F1154.png	F1162.png	D	1	0.4502470652282682	0.2	infinite	0.5	2019-07-12-13:22:58
96	109_cue	10	97		Complete_cue	B	I	A	S	M4	M4115.png	M4114.png	M4147.png	M4114.png	S	1	0.9043909055358199	0.2	infinite	0.5	2019-07-12-13:23:02
97	109_cue	10	98		Complete_cue	B	I	A	D	F5	F5163.png	F5158.png	F5163.png	F5139.png	D	1	0.6485517579437783	0.2	infinite	0.5	2019-07-12-13:23:05
98	109_cue	10	99		Complete_cue	T	C	M	D	F4	F4176.png	F4108.png	F4179.png	F4113.png	D	1	0.5159840920982788	0.2	infinite	0.5	2019-07-12-13:23:09
99	109_cue	10	100		Complete_cue	T	I	M	D	M2	M2161.png	M2127.png	M2134.png	M2127.png	D	1	0.7930756934204055	0.2	infinite	0.5	2019-07-12-13:23:12
100	109_cue	10	101		Complete_cue	T	I	A	S	M1	M1119.png	M1173.png	M1119.png	M1110.png	D	0	0.49750753321973207	0.2	infinite	0.5	2019-07-12-13:23:16
101	109_cue	10	102		Complete_cue	B	C	M	S	M1	M1110.png	M1190.png	M1110.png	M1190.png	D	0	0.38284219167690026	0.2	infinite	0.5	2019-07-12-13:23:19
102	109_cue	10	103		Complete_cue	B	I	A	S	F5	F5163.png	F5158.png	F5136.png	F5158.png	S	1	0.643972317402131	0.2	infinite	0.5	2019-07-12-13:23:22
103	109_cue	10	104		Complete_cue	B	C	A	S	F2	F2177.png	F2111.png	F2177.png	F2111.png	S	1	0.692655218974096	0.2	infinite	0.5	2019-07-12-13:23:26
104	109_cue	10	105		Complete_cue	B	I	A	D	F3	F3130.png	F3146.png	F3130.png	F3184.png	D	1	0.4829630375788838	0.2	infinite	0.5	2019-07-12-13:23:29
105	109_cue	10	106		Complete_cue	T	C	A	S	F4	F4176.png	F4108.png	F4176.png	F4108.png	S	1	0.5002404406784535	0.2	infinite	0.5	2019-07-12-13:23:32
106	109_cue	10	107		Complete_cue	B	C	A	S	F1	F1162.png	F1141.png	F1162.png	F1141.png	S	1	0.4308847735767358	0.2	infinite	0.5	2019-07-12-13:23:35
107	109_cue	10	108		Complete_cue	T	C	A	S	M5	M5185.png	M5159.png	M5185.png	M5159.png	S	1	0.94770615743073	0.2	infinite	0.5	2019-07-12-13:23:39
108	109_cue	10	109		Complete_cue	B	C	M	S	F4	F4176.png	F4108.png	F4176.png	F4108.png	S	1	0.4268612819289501	0.2	infinite	0.5	2019-07-12-13:23:42
109	109_cue	10	110		Complete_cue	T	C	A	S	M5	M5116.png	M5185.png	M5116.png	M5185.png	S	1	0.5418676354013314	0.2	infinite	0.5	2019-07-12-13:23:46
110	109_cue	10	111		Complete_cue	T	C	A	D	F1	F1157.png	F1162.png	F1141.png	F1154.png	D	1	1.0433261591438168	0.2	infinite	0.5	2019-07-12-13:23:49
111	109_cue	10	112		Complete_cue	B	C	M	D	F2	F2171.png	F2168.png	F2177.png	F2111.png	D	1	0.7154173642761634	0.2	infinite	0.5	2019-07-12-13:23:53
112	109_cue	10	113		Complete_cue	T	I	M	D	F1	F1157.png	F1162.png	F1154.png	F1162.png	S	0	0.7933432418203665	0.2	infinite	0.5	2019-07-12-13:23:56
113	109_cue	10	114		Complete_cue	B	C	A	D	M1	M1173.png	M1110.png	M1190.png	M1119.png	D	1	0.5934749628913778	0.2	infinite	0.5	2019-07-12-13:24:00
114	109_cue	10	115		Complete_cue	B	I	A	D	M1	M1110.png	M1190.png	M1110.png	M1119.png	D	1	2.4833386960640382	0.2	infinite	0.5	2019-07-12-13:24:05
115	109_cue	10	116		Complete_cue	B	C	A	S	F2	F2168.png	F2177.png	F2168.png	F2177.png	S	1	0.7837984366062756	0.2	infinite	0.5	2019-07-12-13:24:09
116	109_cue	10	117		Complete_cue	T	C	M	S	M1	M1119.png	M1173.png	M1119.png	M1173.png	S	1	0.39234465110121164	0.2	infinite	0.5	2019-07-12-13:24:12
117	109_cue	10	118		Complete_cue	T	C	M	S	F4	F4176.png	F4108.png	F4176.png	F4108.png	S	1	3.954537303272673	0.2	infinite	0.5	2019-07-12-13:24:18
118	109_cue	10	119		Complete_cue	T	I	A	D	F4	F4176.png	F4108.png	F4113.png	F4108.png	S	0	0.7401697617053742	0.2	infinite	0.5	2019-07-12-13:24:22
119	109_cue	10	120		Complete_cue	T	I	M	D	M1	M1110.png	M1190.png	M1173.png	M1190.png	S	0	0.5600840243128005	0.2	infinite	0.5	2019-07-12-13:24:25
120	109_cue	10	121		Complete_cue	T	I	A	S	F1	F1157.png	F1162.png	F1157.png	F1141.png	D	0	3.2758966159617557	0.2	infinite	0.5	2019-07-12-13:24:44
121	109_cue	10	122		Complete_cue	B	I	M	S	M5	M5126.png	M5116.png	M5159.png	M5116.png	S	1	0.8218647353564847	0.2	infinite	0.5	2019-07-12-13:24:47
122	109_cue	10	123		Complete_cue	B	I	A	D	M2	M2161.png	M2127.png	M2161.png	M2118.png	S	0	0.6064526643042427	0.2	infinite	0.5	2019-07-12-13:24:51
123	109_cue	10	124		Complete_cue	T	I	A	S	M5	M5185.png	M5159.png	M5185.png	M5126.png	D	0	0.7914935007231634	0.2	infinite	0.5	2019-07-12-13:24:54
124	109_cue	10	125		Complete_cue	T	C	M	D	F5	F5163.png	F5158.png	F5139.png	F5136.png	D	1	0.7346067439520994	0.2	infinite	0.5	2019-07-12-13:24:58
125	109_cue	10	126		Complete_cue	B	I	M	D	M5	M5126.png	M5116.png	M5126.png	M5185.png	D	1	0.7667334040593232	0.2	infinite	0.5	2019-07-12-13:25:01
126	109_cue	10	127		Complete_cue	B	I	M	S	M4	M4147.png	M4115.png	M4183.png	M4115.png	D	0	0.690889848655388	0.2	infinite	0.5	2019-07-12-13:25:05
127	109_cue	10	128		Complete_cue	T	C	M	S	F5	F5136.png	F5163.png	F5136.png	F5163.png	S	1	0.5348934121177535	0.2	infinite	0.5	2019-07-12-13:25:08
128	109_cue	10	129		Complete_cue	T	C	A	S	F4	F4108.png	F4179.png	F4108.png	F4179.png	S	1	1.03549282960671	0.2	infinite	0.5	2019-07-12-13:25:12
129	109_cue	10	130		Complete_cue	B	I	M	S	F4	F4179.png	F4113.png	F4108.png	F4113.png	S	1	0.6651118490258341	0.2	infinite	0.5	2019-07-12-13:25:15
130	109_cue	10	131		Complete_cue	T	I	A	S	F3	F3132.png	F3130.png	F3132.png	F3146.png	S	1	1.1252181048782859	0.2	infinite	0.5	2019-07-12-13:25:19
131	109_cue	10	132		Complete_cue	B	I	A	S	M2	M2127.png	M2118.png	M2161.png	M2118.png	S	1	0.5020013197770368	0.2	infinite	0.5	2019-07-12-13:25:22
132	109_cue	10	133		Complete_cue	T	I	M	S	F5	F5136.png	F5163.png	F5136.png	F5158.png	D	0	0.6893426233152695	0.2	infinite	0.5	2019-07-12-13:25:26
133	109_cue	10	134		Complete_cue	T	C	M	S	M2	M2118.png	M2134.png	M2118.png	M2134.png	S	1	0.4515591431138546	0.2	infinite	0.5	2019-07-12-13:25:29
134	109_cue	10	135		Complete_cue	B	I	A	S	M1	M1173.png	M1110.png	M1119.png	M1110.png	S	1	0.5434674721775536	0.2	infinite	0.5	2019-07-12-13:25:32
135	109_cue	10	136		Complete_cue	B	I	A	D	F4	F4113.png	F4176.png	F4113.png	F4108.png	D	1	0.5607942786989497	0.2	infinite	0.5	2019-07-12-13:25:36
136	109_cue	10	137		Complete_cue	T	I	A	D	F2	F2168.png	F2177.png	F2171.png	F2177.png	S	0	0.4152813123857868	0.2	infinite	0.5	2019-07-12-13:25:39
137	109_cue	10	138		Complete_cue	T	C	A	S	M4	M4147.png	M4115.png	M4147.png	M4115.png	S	1	0.42596913312718243	0.2	infinite	0.5	2019-07-12-13:25:42
138	109_cue	10	139		Complete_cue	B	C	A	S	M5	M5116.png	M5185.png	M5116.png	M5185.png	D	0	0.8621567544903428	0.2	infinite	0.5	2019-07-12-13:25:46
139	109_cue	10	140		Complete_cue	B	C	A	S	M1	M1173.png	M1110.png	M1173.png	M1110.png	S	1	0.4554103643886265	0.2	infinite	0.5	2019-07-12-13:25:49
140	109_cue	10	141		Complete_cue	B	C	A	S	M1	M1190.png	M1119.png	M1190.png	M1119.png	S	1	0.7010749735420632	0.2	infinite	0.5	2019-07-12-13:25:52
141	109_cue	10	142		Complete_cue	B	C	A	D	M2	M2134.png	M2161.png	M2127.png	M2118.png	D	1	0.7046191878398531	0.2	infinite	0.5	2019-07-12-13:25:56
142	109_cue	10	143		Complete_cue	B	C	A	D	M4	M4115.png	M4114.png	M4183.png	M4147.png	D	1	0.600544143400839	0.2	infinite	0.5	2019-07-12-13:25:59
143	109_cue	10	144		Complete_cue	B	C	M	D	F2	F2111.png	F2171.png	F2168.png	F2177.png	D	1	0.6567010768983437	0.2	infinite	0.5	2019-07-12-13:26:03
144	109_cue	10	145		Complete_cue	T	I	M	S	M2	M2161.png	M2127.png	M2161.png	M2118.png	D	0	0.781039865032426	0.2	infinite	0.5	2019-07-12-13:26:06
145	109_cue	10	146		Complete_cue	B	I	A	D	F5	F5136.png	F5163.png	F5136.png	F5158.png	D	1	0.6329004973385963	0.2	infinite	0.5	2019-07-12-13:26:10
146	109_cue	10	147		Complete_cue	B	C	M	S	M2	M2118.png	M2134.png	M2118.png	M2134.png	S	1	1.0079908430436717	0.2	infinite	0.5	2019-07-12-13:26:13
147	109_cue	10	148		Complete_cue	B	C	A	D	M1	M1119.png	M1173.png	M1110.png	M1190.png	S	0	0.8315513348065906	0.2	infinite	0.5	2019-07-12-13:26:17
148	109_cue	10	149		Complete_cue	T	C	M	S	F2	F2171.png	F2168.png	F2171.png	F2168.png	S	1	0.5980268145092396	0.2	infinite	0.5	2019-07-12-13:26:20
149	109_cue	10	150		Complete_cue	B	C	M	S	F1	F1141.png	F1154.png	F1141.png	F1154.png	S	1	0.4641720932904718	0.2	infinite	0.5	2019-07-12-13:26:24
150	109_cue	10	151		Complete_cue	B	C	A	S	M4	M4115.png	M4114.png	M4115.png	M4114.png	S	1	0.4770481006469254	0.2	infinite	0.5	2019-07-12-13:26:27
151	109_cue	10	152		Complete_cue	T	C	M	S	M3	M3174.png	M3138.png	M3174.png	M3138.png	S	1	0.9492880293264534	0.2	infinite	0.5	2019-07-12-13:26:31
152	109_cue	10	153		Complete_cue	T	C	M	D	M5	M5159.png	M5126.png	M5116.png	M5185.png	D	1	0.5434437328710828	0.2	infinite	0.5	2019-07-12-13:26:34
153	109_cue	10	154		Complete_cue	T	C	A	S	M4	M4183.png	M4147.png	M4183.png	M4147.png	S	1	0.5685608815367686	0.2	infinite	0.5	2019-07-12-13:26:37
154	109_cue	10	155		Complete_cue	B	I	A	D	M4	M4114.png	M4183.png	M4114.png	M4147.png	S	0	0.597677140940732	0.2	infinite	0.5	2019-07-12-13:26:41
155	109_cue	10	156		Complete_cue	B	C	M	D	F4	F4176.png	F4108.png	F4179.png	F4113.png	D	1	0.6148015217538614	0.2	infinite	0.5	2019-07-12-13:26:44
156	109_cue	10	157		Complete_cue	T	C	M	D	F5	F5158.png	F5139.png	F5136.png	F5163.png	S	0	0.6040880368973376	0.2	infinite	0.5	2019-07-12-13:26:47
157	109_cue	10	158		Complete_cue	B	I	M	D	F5	F5139.png	F5136.png	F5139.png	F5163.png	S	0	0.9016262387347069	0.2	infinite	0.5	2019-07-12-13:26:51
158	109_cue	10	159		Complete_cue	B	C	A	D	F5	F5163.png	F5158.png	F5139.png	F5136.png	D	1	0.6224077238721293	0.2	infinite	0.5	2019-07-12-13:26:54
159	109_cue	10	160		Complete_cue	T	I	M	S	M3	M3138.png	M3186.png	M3138.png	M3124.png	D	0	0.7088271403151793	0.2	infinite	0.5	2019-07-12-13:26:58
160	109_cue	10	161		Complete_cue	T	I	A	D	M1	M1119.png	M1173.png	M1190.png	M1173.png	D	1	0.6168036435344675	0.2	infinite	0.5	2019-07-12-13:27:13
161	109_cue	10	162		Complete_cue	B	I	A	S	F2	F2111.png	F2171.png	F2177.png	F2171.png	S	1	0.5135184122379997	0.2	infinite	0.5	2019-07-12-13:27:16
162	109_cue	10	163		Complete_cue	B	C	M	D	M2	M2127.png	M2118.png	M2134.png	M2161.png	D	1	0.49755565343571106	0.2	infinite	0.5	2019-07-12-13:27:19
163	109_cue	10	164		Complete_cue	B	I	A	S	M4	M4147.png	M4115.png	M4183.png	M4115.png	S	1	0.3977078095581419	0.2	infinite	0.5	2019-07-12-13:27:22
164	109_cue	10	165		Complete_cue	T	C	A	D	M5	M5185.png	M5159.png	M5126.png	M5116.png	D	1	0.5365971885605632	0.2	infinite	0.5	2019-07-12-13:27:26
165	109_cue	10	166		Complete_cue	B	I	A	S	M5	M5159.png	M5126.png	M5185.png	M5126.png	S	1	0.8634104465138535	0.2	infinite	0.5	2019-07-12-13:27:29
166	109_cue	10	167		Complete_cue	T	C	M	D	M3	M3174.png	M3138.png	M3186.png	M3124.png	D	1	0.7620618935047787	0.2	infinite	0.5	2019-07-12-13:27:33
167	109_cue	10	168		Complete_cue	T	I	M	S	F2	F2111.png	F2171.png	F2111.png	F2168.png	D	0	1.1938580639696283	0.2	infinite	0.5	2019-07-12-13:27:37
168	109_cue	10	169		Complete_cue	T	I	M	D	M2	M2127.png	M2118.png	M2161.png	M2118.png	S	0	0.8572003722581485	0.2	infinite	0.5	2019-07-12-13:27:40
169	109_cue	10	170		Complete_cue	T	C	M	D	F3	F3184.png	F3132.png	F3130.png	F3146.png	D	1	0.7793976824661968	0.2	infinite	0.5	2019-07-12-13:27:44
170	109_cue	10	171		Complete_cue	B	C	A	S	M2	M2161.png	M2127.png	M2161.png	M2127.png	S	1	0.5449713893237913	0.2	infinite	0.5	2019-07-12-13:27:47
171	109_cue	10	172		Complete_cue	B	I	A	S	F4	F4179.png	F4113.png	F4108.png	F4113.png	S	1	0.4259373737847909	0.2	infinite	0.5	2019-07-12-13:27:50
172	109_cue	10	173		Complete_cue	B	I	M	S	F3	F3132.png	F3130.png	F3184.png	F3130.png	S	1	0.5549832814331239	0.2	infinite	0.5	2019-07-12-13:27:54
173	109_cue	10	174		Complete_cue	T	I	M	D	F3	F3146.png	F3184.png	F3130.png	F3184.png	D	1	0.8077773817663001	0.2	infinite	0.5	2019-07-12-13:27:57
174	109_cue	10	175		Complete_cue	T	C	M	D	M2	M2134.png	M2161.png	M2127.png	M2118.png	S	0	0.5303085179518803	0.2	infinite	0.5	2019-07-12-13:28:01
175	109_cue	10	176		Complete_cue	T	C	M	D	F2	F2168.png	F2177.png	F2111.png	F2171.png	D	1	0.5506906373780112	0.2	infinite	0.5	2019-07-12-13:28:04
176	109_cue	10	177		Complete_cue	T	I	M	S	F5	F5163.png	F5158.png	F5163.png	F5139.png	S	1	0.6709266959087472	0.2	infinite	0.5	2019-07-12-13:28:07
177	109_cue	10	178		Complete_cue	B	I	M	S	F5	F5163.png	F5158.png	F5136.png	F5158.png	S	1	0.5732551689934553	0.2	infinite	0.5	2019-07-12-13:28:11
178	109_cue	10	179		Complete_cue	T	C	A	D	M1	M1190.png	M1119.png	M1173.png	M1110.png	D	1	0.7218959493363855	0.2	infinite	0.5	2019-07-12-13:28:14
179	109_cue	10	180		Complete_cue	B	C	M	D	M1	M1119.png	M1173.png	M1110.png	M1190.png	S	0	0.5832657778969406	0.2	infinite	0.5	2019-07-12-13:28:18
180	109_cue	10	181		Complete_cue	T	I	M	S	M3	M3174.png	M3138.png	M3174.png	M3186.png	D	0	0.5883094181208435	0.2	infinite	0.5	2019-07-12-13:28:21
181	109_cue	10	182		Complete_cue	B	I	A	S	M4	M4114.png	M4183.png	M4115.png	M4183.png	S	1	0.4567673544754598	0.2	infinite	0.5	2019-07-12-13:28:24
182	109_cue	10	183		Complete_cue	T	I	A	S	M3	M3138.png	M3186.png	M3138.png	M3124.png	D	0	0.894502842781776	0.2	infinite	0.5	2019-07-12-13:28:28
183	109_cue	10	184		Complete_cue	T	C	A	D	F5	F5136.png	F5163.png	F5158.png	F5139.png	D	1	0.5265188905532341	0.2	infinite	0.5	2019-07-12-13:28:31
184	109_cue	10	185		Complete_cue	T	I	A	S	F4	F4179.png	F4113.png	F4179.png	F4176.png	D	0	1.3275190211193149	0.2	infinite	0.5	2019-07-12-13:28:35
185	109_cue	10	186		Complete_cue	B	I	M	S	F3	F3130.png	F3146.png	F3132.png	F3146.png	S	1	0.5484722954272456	0.2	infinite	0.5	2019-07-12-13:28:38
186	109_cue	10	187		Complete_cue	B	C	M	S	F4	F4113.png	F4176.png	F4113.png	F4176.png	S	1	0.702835211037609	0.2	infinite	0.5	2019-07-12-13:28:42
187	109_cue	10	188		Complete_cue	B	I	M	D	F4	F4176.png	F4108.png	F4176.png	F4179.png	S	0	0.6960784911295832	0.2	infinite	0.5	2019-07-12-13:28:45
188	109_cue	10	189		Complete_cue	T	C	A	S	M3	M3186.png	M3124.png	M3186.png	M3124.png	S	1	0.3961666794452867	0.2	infinite	0.5	2019-07-12-13:28:49
189	109_cue	10	190		Complete_cue	B	C	A	D	M1	M1110.png	M1190.png	M1119.png	M1173.png	S	0	0.3565595713835137	0.2	infinite	0.5	2019-07-12-13:28:52
190	109_cue	10	191		Complete_cue	B	I	M	D	F4	F4108.png	F4179.png	F4108.png	F4113.png	D	1	0.7238634245618414	0.2	infinite	0.5	2019-07-12-13:28:55
191	109_cue	10	192		Complete_cue	T	C	M	S	M2	M2127.png	M2118.png	M2127.png	M2118.png	S	1	0.5485887463498784	0.2	infinite	0.5	2019-07-12-13:28:58
192	109_cue	10	193		Complete_cue	T	C	M	S	F3	F3146.png	F3184.png	F3146.png	F3184.png	S	1	0.6026184455051862	0.2	infinite	0.5	2019-07-12-13:29:02
193	109_cue	10	194		Complete_cue	B	C	A	S	M5	M5185.png	M5159.png	M5185.png	M5159.png	S	1	0.41353198213914766	0.2	infinite	0.5	2019-07-12-13:29:05
194	109_cue	10	195		Complete_cue	T	C	M	D	F3	F3146.png	F3184.png	F3132.png	F3130.png	S	0	0.5403755879087839	0.2	infinite	0.5	2019-07-12-13:29:08
195	109_cue	10	196		Complete_cue	B	I	M	S	M3	M3186.png	M3124.png	M3138.png	M3124.png	S	1	2.3078731409957527	0.2	infinite	0.5	2019-07-12-13:29:13
196	109_cue	10	197		Complete_cue	B	C	A	D	M1	M1190.png	M1119.png	M1173.png	M1110.png	D	1	0.4779623847480252	0.2	infinite	0.5	2019-07-12-13:29:17
197	109_cue	10	198		Complete_cue	B	I	A	D	F4	F4179.png	F4113.png	F4179.png	F4176.png	S	0	0.423032837556093	0.2	infinite	0.5	2019-07-12-13:29:20
198	109_cue	10	199		Complete_cue	B	I	M	D	M2	M2161.png	M2127.png	M2161.png	M2118.png	D	1	0.6493861624865076	0.2	infinite	0.5	2019-07-12-13:29:23
199	109_cue	10	200		Complete_cue	B	C	A	S	F4	F4176.png	F4108.png	F4176.png	F4108.png	S	1	0.3074881792690576	0.2	infinite	0.5	2019-07-12-13:29:26
200	109_cue	10	201		Complete_cue	T	I	M	S	M5	M5116.png	M5185.png	M5116.png	M5159.png	S	1	0.8438062705774882	0.2	infinite	0.5	2019-07-12-13:29:41
201	109_cue	10	202		Complete_cue	B	C	A	D	M2	M2161.png	M2127.png	M2118.png	M2134.png	D	1	0.9007706612969741	0.2	infinite	0.5	2019-07-12-13:29:45
202	109_cue	10	203		Complete_cue	T	I	M	D	M1	M1173.png	M1110.png	M1119.png	M1110.png	S	0	0.3394544386567304	0.2	infinite	0.5	2019-07-12-13:29:48
203	109_cue	10	204		Complete_cue	T	C	M	S	F4	F4113.png	F4176.png	F4113.png	F4176.png	S	1	0.304687261905201	0.2	infinite	0.5	2019-07-12-13:29:51
204	109_cue	10	205		Complete_cue	T	I	A	D	M3	M3186.png	M3124.png	M3138.png	M3124.png	D	1	0.34417278622140657	0.2	infinite	0.5	2019-07-12-13:29:54
205	109_cue	10	206		Complete_cue	B	I	A	S	M3	M3186.png	M3124.png	M3138.png	M3124.png	S	1	0.5842631495709156	0.2	infinite	0.5	2019-07-12-13:29:57
206	109_cue	10	207		Complete_cue	T	I	A	S	M3	M3174.png	M3138.png	M3174.png	M3186.png	D	0	0.7615190974699999	0.2	infinite	0.5	2019-07-12-13:30:01
207	109_cue	10	208		Complete_cue	B	C	M	S	M4	M4114.png	M4183.png	M4114.png	M4183.png	S	1	0.42749614797685354	0.2	infinite	0.5	2019-07-12-13:30:04
208	109_cue	10	209		Complete_cue	T	C	A	S	F3	F3132.png	F3130.png	F3132.png	F3130.png	S	1	0.5254179000146451	0.2	infinite	0.5	2019-07-12-13:30:07
209	109_cue	10	210		Complete_cue	B	I	A	D	M1	M1190.png	M1119.png	M1190.png	M1173.png	S	0	0.3544923269107585	0.2	infinite	0.5	2019-07-12-13:30:11
210	109_cue	10	211		Complete_cue	B	C	A	S	F5	F5139.png	F5136.png	F5139.png	F5136.png	S	1	0.4217287797066547	0.2	infinite	0.5	2019-07-12-13:30:14
211	109_cue	10	212		Complete_cue	T	C	M	S	F3	F3132.png	F3130.png	F3132.png	F3130.png	S	1	0.8690032988013172	0.2	infinite	0.5	2019-07-12-13:30:17
212	109_cue	10	213		Complete_cue	B	I	M	S	F5	F5136.png	F5163.png	F5139.png	F5163.png	D	0	0.7831549089196415	0.2	infinite	0.5	2019-07-12-13:30:21
213	109_cue	10	214		Complete_cue	B	I	M	S	F2	F2177.png	F2111.png	F2168.png	F2111.png	S	1	0.38295190576900495	0.2	infinite	0.5	2019-07-12-13:30:24
214	109_cue	10	215		Complete_cue	T	I	M	D	M3	M3138.png	M3186.png	M3174.png	M3186.png	S	0	0.5196880655128098	0.2	infinite	0.5	2019-07-12-13:30:27
215	109_cue	10	216		Complete_cue	T	I	M	D	M3	M3124.png	M3174.png	M3186.png	M3174.png	S	0	0.5402706858383226	0.2	infinite	0.5	2019-07-12-13:30:31
216	109_cue	10	217		Complete_cue	B	I	M	D	F4	F4113.png	F4176.png	F4113.png	F4108.png	D	1	0.49998796994600525	0.2	infinite	0.5	2019-07-12-13:30:34
217	109_cue	10	218		Complete_cue	B	I	A	D	M4	M4183.png	M4147.png	M4183.png	M4115.png	S	0	0.864703597114385	0.2	infinite	0.5	2019-07-12-13:30:38
218	109_cue	10	219		Complete_cue	T	I	A	D	F3	F3132.png	F3130.png	F3184.png	F3130.png	S	0	0.59037570018927	0.2	infinite	0.5	2019-07-12-13:30:41
219	109_cue	10	220		Complete_cue	B	C	M	D	F3	F3132.png	F3130.png	F3146.png	F3184.png	D	1	0.9387564388857754	0.2	infinite	0.5	2019-07-12-13:30:45
220	109_cue	10	221		Complete_cue	T	C	A	D	F2	F2168.png	F2177.png	F2111.png	F2171.png	D	1	0.976408903779884	0.2	infinite	0.5	2019-07-12-13:30:48
221	109_cue	10	222		Complete_cue	B	C	M	D	M3	M3186.png	M3124.png	M3174.png	M3138.png	D	1	0.7865544417686579	0.2	infinite	0.5	2019-07-12-13:30:52
222	109_cue	10	223		Complete_cue	B	I	A	S	F5	F5139.png	F5136.png	F5158.png	F5136.png	S	1	0.4731166790120369	0.2	infinite	0.5	2019-07-12-13:30:55
223	109_cue	10	224		Complete_cue	B	C	M	D	F5	F5136.png	F5163.png	F5158.png	F5139.png	D	1	1.4759188795817408	0.2	infinite	0.5	2019-07-12-13:30:59
224	109_cue	10	225		Complete_cue	B	C	A	S	M4	M4114.png	M4183.png	M4114.png	M4183.png	S	1	0.3426800971258217	0.2	infinite	0.5	2019-07-12-13:31:03
225	109_cue	10	226		Complete_cue	T	I	M	S	F3	F3146.png	F3184.png	F3146.png	F3132.png	D	0	0.9634475632406065	0.2	infinite	0.5	2019-07-12-13:31:06
226	109_cue	10	227		Complete_cue	B	C	A	D	F3	F3132.png	F3130.png	F3146.png	F3184.png	D	1	1.0397967017120209	0.2	infinite	0.5	2019-07-12-13:31:10
227	109_cue	10	228		Complete_cue	T	I	M	S	F2	F2168.png	F2177.png	F2168.png	F2111.png	S	1	0.6837706231217453	0.2	infinite	0.5	2019-07-12-13:31:14
228	109_cue	10	229		Complete_cue	B	I	M	S	F1	F1162.png	F1141.png	F1157.png	F1141.png	S	1	1.3148496098892792	0.2	infinite	0.5	2019-07-12-13:31:18
229	109_cue	10	230		Complete_cue	T	C	A	D	F1	F1154.png	F1157.png	F1162.png	F1141.png	S	0	0.7492686529194543	0.2	infinite	0.5	2019-07-12-13:31:21
230	109_cue	10	231		Complete_cue	T	C	M	S	F5	F5139.png	F5136.png	F5139.png	F5136.png	D	0	1.503141768892874	0.2	infinite	0.5	2019-07-12-13:31:25
231	109_cue	10	232		Complete_cue	T	C	A	D	F3	F3130.png	F3146.png	F3184.png	F3132.png	D	1	0.5356197065757442	0.2	infinite	0.5	2019-07-12-13:31:29
232	109_cue	10	233		Complete_cue	B	I	A	S	M2	M2118.png	M2134.png	M2127.png	M2134.png	S	1	0.33360815323294446	0.2	infinite	0.5	2019-07-12-13:31:32
233	109_cue	10	234		Complete_cue	T	C	M	S	M5	M5159.png	M5126.png	M5159.png	M5126.png	S	1	0.5895531652995487	0.2	infinite	0.5	2019-07-12-13:31:35
234	109_cue	10	235		Complete_cue	T	C	A	D	M4	M4115.png	M4114.png	M4183.png	M4147.png	D	1	0.7548275002541232	0.2	infinite	0.5	2019-07-12-13:31:39
235	109_cue	10	236		Complete_cue	B	C	A	D	M4	M4114.png	M4183.png	M4147.png	M4115.png	S	0	0.4945766912733234	0.2	infinite	0.5	2019-07-12-13:31:42
236	109_cue	10	237		Complete_cue	B	I	A	D	F2	F2168.png	F2177.png	F2168.png	F2111.png	D	1	1.0906379553657644	0.2	infinite	0.5	2019-07-12-13:31:46
237	109_cue	10	238		Complete_cue	T	C	M	S	F1	F1154.png	F1157.png	F1154.png	F1157.png	S	1	0.5674412845146435	0.2	infinite	0.5	2019-07-12-13:31:49
238	109_cue	10	239		Complete_cue	T	I	A	S	F4	F4108.png	F4179.png	F4108.png	F4113.png	S	1	0.5962146071801726	0.2	infinite	0.5	2019-07-12-13:31:53
239	109_cue	10	240		Complete_cue	T	I	M	D	M3	M3186.png	M3124.png	M3138.png	M3124.png	S	0	0.4034546465359199	0.2	infinite	0.5	2019-07-12-13:31:56
240	109_cue	10	241		Complete_cue	T	I	A	S	F2	F2168.png	F2177.png	F2168.png	F2111.png	S	1	1.228650904836286	0.2	infinite	0.5	2019-07-12-13:32:11
241	109_cue	10	242		Complete_cue	B	I	M	D	F1	F1157.png	F1162.png	F1157.png	F1141.png	D	1	0.6368777935790604	0.2	infinite	0.5	2019-07-12-13:32:14
242	109_cue	10	243		Complete_cue	T	C	M	D	M5	M5126.png	M5116.png	M5185.png	M5159.png	S	0	0.3953941895802018	0.2	infinite	0.5	2019-07-12-13:32:17
243	109_cue	10	244		Complete_cue	B	C	A	D	F4	F4176.png	F4108.png	F4179.png	F4113.png	D	1	0.49811352713777524	0.2	infinite	0.5	2019-07-12-13:32:21
244	109_cue	10	245		Complete_cue	T	C	A	D	F4	F4113.png	F4176.png	F4108.png	F4179.png	D	1	0.41960507418070847	0.2	infinite	0.5	2019-07-12-13:32:24
245	109_cue	10	246		Complete_cue	T	C	M	S	F5	F5158.png	F5139.png	F5158.png	F5139.png	S	1	0.4621914652061605	0.2	infinite	0.5	2019-07-12-13:32:27
246	109_cue	10	247		Complete_cue	B	C	A	D	M2	M2118.png	M2134.png	M2161.png	M2127.png	D	1	0.3934902330397563	0.2	infinite	0.5	2019-07-12-13:32:30
247	109_cue	10	248		Complete_cue	T	C	A	S	F2	F2168.png	F2177.png	F2168.png	F2177.png	S	1	0.43018638884404936	0.2	infinite	0.5	2019-07-12-13:32:33
248	109_cue	10	249		Complete_cue	T	C	M	D	F2	F2171.png	F2168.png	F2177.png	F2111.png	D	1	0.6288885545423	0.2	infinite	0.5	2019-07-12-13:32:37
249	109_cue	10	250		Complete_cue	B	C	A	D	F1	F1157.png	F1162.png	F1141.png	F1154.png	D	1	1.0021160062915442	0.2	infinite	0.5	2019-07-12-13:32:41
250	109_cue	10	251		Complete_cue	B	I	A	S	M3	M3124.png	M3174.png	M3186.png	M3174.png	S	1	0.4146515791612728	0.2	infinite	0.5	2019-07-12-13:32:44
251	109_cue	10	252		Complete_cue	B	C	M	S	M2	M2161.png	M2127.png	M2161.png	M2127.png	S	1	0.4484560307942047	0.2	infinite	0.5	2019-07-12-13:32:47
252	109_cue	10	253		Complete_cue	B	C	A	D	F1	F1162.png	F1141.png	F1154.png	F1157.png	D	1	0.3836993731219991	0.2	infinite	0.5	2019-07-12-13:32:50
253	109_cue	10	254		Complete_cue	B	C	M	S	F3	F3130.png	F3146.png	F3130.png	F3146.png	S	1	0.5043107693363709	0.2	infinite	0.5	2019-07-12-13:32:53
254	109_cue	10	255		Complete_cue	B	C	A	D	F2	F2171.png	F2168.png	F2177.png	F2111.png	D	1	0.5064036779244816	0.2	infinite	0.5	2019-07-12-13:32:57
255	109_cue	10	256		Complete_cue	B	C	M	S	M3	M3124.png	M3174.png	M3124.png	M3174.png	S	1	0.5228418644592239	0.2	infinite	0.5	2019-07-12-13:33:00
256	109_cue	10	257		Complete_cue	B	C	M	D	F4	F4113.png	F4176.png	F4108.png	F4179.png	D	1	0.46090216422271624	0.2	infinite	0.5	2019-07-12-13:33:03
257	109_cue	10	258		Complete_cue	B	C	M	D	M1	M1110.png	M1190.png	M1119.png	M1173.png	D	1	0.6734988818466263	0.2	infinite	0.5	2019-07-12-13:33:07
258	109_cue	10	259		Complete_cue	T	I	A	D	M5	M5126.png	M5116.png	M5159.png	M5116.png	S	0	0.611351943880436	0.2	infinite	0.5	2019-07-12-13:33:10
259	109_cue	10	260		Complete_cue	T	I	A	D	F3	F3146.png	F3184.png	F3130.png	F3184.png	S	0	0.7147327740053697	0.2	infinite	0.5	2019-07-12-13:33:14
260	109_cue	10	261		Complete_cue	B	I	M	S	F3	F3146.png	F3184.png	F3130.png	F3184.png	S	1	0.3882749640461043	0.2	infinite	0.5	2019-07-12-13:33:17
261	109_cue	10	262		Complete_cue	T	I	A	S	M2	M2161.png	M2127.png	M2161.png	M2118.png	S	1	0.332704776380524	0.2	infinite	0.5	2019-07-12-13:33:20
262	109_cue	10	263		Complete_cue	T	I	A	S	F5	F5136.png	F5163.png	F5136.png	F5158.png	S	1	0.3287749587525468	0.2	infinite	0.5	2019-07-12-13:33:23
263	109_cue	10	264		Complete_cue	T	C	A	D	F1	F1162.png	F1141.png	F1154.png	F1157.png	S	0	0.2452600785386494	0.2	infinite	0.5	2019-07-12-13:33:26
264	109_cue	10	265		Complete_cue	T	C	A	D	M1	M1173.png	M1110.png	M1190.png	M1119.png	S	0	0.5932317954006976	0.2	infinite	0.5	2019-07-12-13:33:29
265	109_cue	10	266		Complete_cue	B	I	A	D	M2	M2127.png	M2118.png	M2127.png	M2134.png	D	1	0.4877891744272347	0.2	infinite	0.5	2019-07-12-13:33:33
266	109_cue	10	267		Complete_cue	T	I	M	S	F5	F5158.png	F5139.png	F5158.png	F5136.png	D	0	0.46660633460942336	0.2	infinite	0.5	2019-07-12-13:33:36
267	109_cue	10	268		Complete_cue	B	C	A	S	M3	M3124.png	M3174.png	M3124.png	M3174.png	S	1	0.3802645521150225	0.2	infinite	0.5	2019-07-12-13:33:39
268	109_cue	10	269		Complete_cue	B	C	M	S	M3	M3186.png	M3124.png	M3186.png	M3124.png	D	0	0.5301991246610669	0.2	infinite	0.5	2019-07-12-13:33:42
269	109_cue	10	270		Complete_cue	B	C	A	D	F4	F4113.png	F4176.png	F4108.png	F4179.png	D	1	0.528133163394159	0.2	infinite	0.5	2019-07-12-13:33:45
270	109_cue	10	271		Complete_cue	B	I	A	S	M5	M5126.png	M5116.png	M5159.png	M5116.png	S	1	0.32379098759702174	0.2	infinite	0.5	2019-07-12-13:33:49
271	109_cue	10	272		Complete_cue	T	C	M	D	F4	F4113.png	F4176.png	F4108.png	F4179.png	D	1	0.5139656094438578	0.2	infinite	0.5	2019-07-12-13:33:52
272	109_cue	10	273		Complete_cue	B	C	M	S	F1	F1162.png	F1141.png	F1162.png	F1141.png	S	1	0.3432304686343741	0.2	infinite	0.5	2019-07-12-13:33:55
273	109_cue	10	274		Complete_cue	T	C	A	D	F2	F2177.png	F2111.png	F2171.png	F2168.png	D	1	0.5960173142952954	0.2	infinite	0.5	2019-07-12-13:33:58
274	109_cue	10	275		Complete_cue	T	C	A	S	M3	M3174.png	M3138.png	M3174.png	M3138.png	S	1	0.28893430724383506	0.2	infinite	0.5	2019-07-12-13:34:01
275	109_cue	10	276		Complete_cue	B	C	M	D	F2	F2177.png	F2111.png	F2171.png	F2168.png	D	1	0.40619942364810413	0.2	infinite	0.5	2019-07-12-13:34:05
276	109_cue	10	277		Complete_cue	T	I	M	S	F4	F4179.png	F4113.png	F4179.png	F4176.png	D	0	0.5620004921092914	0.2	infinite	0.5	2019-07-12-13:34:08
277	109_cue	10	278		Complete_cue	T	C	A	S	F2	F2111.png	F2171.png	F2111.png	F2171.png	D	0	0.8297214833987709	0.2	infinite	0.5	2019-07-12-13:34:11
278	109_cue	10	279		Complete_cue	T	C	M	S	M3	M3124.png	M3174.png	M3124.png	M3174.png	S	1	0.6240553600623571	0.2	infinite	0.5	2019-07-12-13:34:15
279	109_cue	10	280		Complete_cue	T	I	A	D	F1	F1162.png	F1141.png	F1157.png	F1141.png	S	0	0.8742859360972943	0.2	infinite	0.5	2019-07-12-13:34:19
280	109_cue	10	281		Complete_cue	B	I	A	S	M5	M5185.png	M5159.png	M5116.png	M5159.png	S	1	1.695734912788339	0.2	infinite	0.5	2019-07-12-13:34:34
281	109_cue	10	282		Complete_cue	T	I	A	S	F5	F5139.png	F5136.png	F5139.png	F5163.png	S	1	0.7873166659878734	0.2	infinite	0.5	2019-07-12-13:34:37
282	109_cue	10	283		Complete_cue	B	C	A	S	F4	F4179.png	F4113.png	F4179.png	F4113.png	S	1	0.9689451375002136	0.2	infinite	0.5	2019-07-12-13:34:41
283	109_cue	10	284		Complete_cue	T	I	A	S	F4	F4176.png	F4108.png	F4176.png	F4179.png	D	0	1.112756572980743	0.2	infinite	0.5	2019-07-12-13:34:45
284	109_cue	10	285		Complete_cue	B	C	A	S	M5	M5159.png	M5126.png	M5159.png	M5126.png	S	1	0.5308307826944656	0.2	infinite	0.5	2019-07-12-13:34:48
285	109_cue	10	286		Complete_cue	T	I	M	S	F4	F4176.png	F4108.png	F4176.png	F4179.png	S	1	0.8390888854173681	0.2	infinite	0.5	2019-07-12-13:34:52
286	109_cue	10	287		Complete_cue	T	I	A	S	F2	F2171.png	F2168.png	F2171.png	F2177.png	S	1	0.35024331185150004	0.2	infinite	0.5	2019-07-12-13:34:55
287	109_cue	10	288		Complete_cue	B	I	M	S	F1	F1157.png	F1162.png	F1154.png	F1162.png	S	1	0.3957133870121652	0.2	infinite	0.5	2019-07-12-13:34:58
288	109_cue	10	289		Complete_cue	T	C	A	D	M4	M4183.png	M4147.png	M4115.png	M4114.png	D	1	0.5020818409384447	0.2	infinite	0.5	2019-07-12-13:35:01
289	109_cue	10	290		Complete_cue	B	I	A	D	F1	F1141.png	F1154.png	F1141.png	F1157.png	D	1	0.5946728354647348	0.2	infinite	0.5	2019-07-12-13:35:05
290	109_cue	10	291		Complete_cue	B	I	M	S	F3	F3184.png	F3132.png	F3146.png	F3132.png	S	1	0.6138577239203187	0.2	infinite	0.5	2019-07-12-13:35:08
291	109_cue	10	292		Complete_cue	B	I	M	S	M3	M3124.png	M3174.png	M3186.png	M3174.png	S	1	0.5416296007338133	0.2	infinite	0.5	2019-07-12-13:35:11
292	109_cue	10	293		Complete_cue	B	C	M	D	M2	M2118.png	M2134.png	M2161.png	M2127.png	D	1	0.4977728360099718	0.2	infinite	0.5	2019-07-12-13:35:15
293	109_cue	10	294		Complete_cue	B	I	M	D	M1	M1110.png	M1190.png	M1110.png	M1119.png	S	0	0.3367757466412513	0.2	infinite	0.5	2019-07-12-13:35:18
294	109_cue	10	295		Complete_cue	B	I	A	D	M5	M5185.png	M5159.png	M5185.png	M5126.png	D	1	0.5079014998427738	0.2	infinite	0.5	2019-07-12-13:35:21
295	109_cue	10	296		Complete_cue	T	C	A	S	M1	M1190.png	M1119.png	M1190.png	M1119.png	S	1	0.7802009692695719	0.2	infinite	0.5	2019-07-12-13:35:25
296	109_cue	10	297		Complete_cue	T	C	M	D	F1	F1162.png	F1141.png	F1154.png	F1157.png	D	1	0.49905155054557326	0.2	infinite	0.5	2019-07-12-13:35:28
297	109_cue	10	298		Complete_cue	T	I	M	S	M5	M5126.png	M5116.png	M5126.png	M5185.png	D	0	0.7076690471203619	0.2	infinite	0.5	2019-07-12-13:35:31
298	109_cue	10	299		Complete_cue	B	I	A	D	M1	M1173.png	M1110.png	M1173.png	M1190.png	D	1	0.5743908060876493	0.2	infinite	0.5	2019-07-12-13:35:35
299	109_cue	10	300		Complete_cue	B	I	M	D	M3	M3138.png	M3186.png	M3138.png	M3124.png	D	1	0.6812722215145186	0.2	infinite	0.5	2019-07-12-13:35:38
300	109_cue	10	301		Complete_cue	T	I	A	S	F5	F5158.png	F5139.png	F5158.png	F5136.png	D	0	0.6056060693067593	0.2	infinite	0.5	2019-07-12-13:35:42
301	109_cue	10	302		Complete_cue	B	C	M	D	F3	F3130.png	F3146.png	F3184.png	F3132.png	S	0	0.625551898775484	0.2	infinite	0.5	2019-07-12-13:35:45
302	109_cue	10	303		Complete_cue	T	I	A	D	F4	F4179.png	F4113.png	F4108.png	F4113.png	S	0	0.4105363383018812	0.2	infinite	0.5	2019-07-12-13:35:48
303	109_cue	10	304		Complete_cue	T	C	M	S	F5	F5163.png	F5158.png	F5163.png	F5158.png	S	1	0.5107152492641944	0.2	infinite	0.5	2019-07-12-13:35:51
304	109_cue	10	305		Complete_cue	T	C	A	D	M4	M4147.png	M4115.png	M4114.png	M4183.png	S	0	0.5076955453191658	0.2	infinite	0.5	2019-07-12-13:35:55
305	109_cue	10	306		Complete_cue	T	I	M	D	M5	M5126.png	M5116.png	M5159.png	M5116.png	S	0	0.5223426974202994	0.2	infinite	0.5	2019-07-12-13:35:58
306	109_cue	10	307		Complete_cue	T	I	A	D	M2	M2118.png	M2134.png	M2127.png	M2134.png	S	0	0.6233791106292301	0.2	infinite	0.5	2019-07-12-13:36:01
307	109_cue	10	308		Complete_cue	T	I	M	D	F2	F2171.png	F2168.png	F2111.png	F2168.png	S	0	0.489312660460655	0.2	infinite	0.5	2019-07-12-13:36:05
308	109_cue	10	309		Complete_cue	B	I	M	D	F5	F5163.png	F5158.png	F5163.png	F5139.png	D	1	0.7080225703061842	0.2	infinite	0.5	2019-07-12-13:36:08
309	109_cue	10	310		Complete_cue	T	I	A	D	F5	F5163.png	F5158.png	F5136.png	F5158.png	S	0	0.39452962970199223	0.2	infinite	0.5	2019-07-12-13:36:11
310	109_cue	10	311		Complete_cue	T	I	M	S	F4	F4113.png	F4176.png	F4113.png	F4108.png	D	0	0.5947257677021298	0.2	infinite	0.5	2019-07-12-13:36:15
311	109_cue	10	312		Complete_cue	T	C	A	D	M1	M1110.png	M1190.png	M1119.png	M1173.png	S	0	0.355824294485501	0.2	infinite	0.5	2019-07-12-13:36:18
312	109_cue	10	313		Complete_cue	T	C	A	D	F3	F3146.png	F3184.png	F3132.png	F3130.png	S	0	0.6010538968876062	0.2	infinite	0.5	2019-07-12-13:36:21
313	109_cue	10	314		Complete_cue	B	C	M	S	F3	F3184.png	F3132.png	F3184.png	F3132.png	S	1	0.3621854662187616	0.2	infinite	0.5	2019-07-12-13:36:24
314	109_cue	10	315		Complete_cue	T	C	M	S	M5	M5116.png	M5185.png	M5116.png	M5185.png	S	1	0.574685301808131	0.2	infinite	0.5	2019-07-12-13:36:28
315	109_cue	10	316		Complete_cue	T	I	A	S	M1	M1110.png	M1190.png	M1110.png	M1119.png	S	1	0.3470898337059225	0.2	infinite	0.5	2019-07-12-13:36:31
316	109_cue	10	317		Complete_cue	B	I	A	D	F4	F4108.png	F4179.png	F4108.png	F4113.png	D	1	0.7495820759254457	0.2	infinite	0.5	2019-07-12-13:36:34
317	109_cue	10	318		Complete_cue	B	I	A	D	F4	F4176.png	F4108.png	F4176.png	F4179.png	S	0	0.6569195426782244	0.2	infinite	0.5	2019-07-12-13:36:38
318	109_cue	10	319		Complete_cue	B	I	M	D	F3	F3130.png	F3146.png	F3130.png	F3184.png	S	0	0.5246428437380928	0.2	infinite	0.5	2019-07-12-13:36:41
319	109_cue	10	320		Complete_cue	B	I	A	D	M1	M1119.png	M1173.png	M1119.png	M1110.png	S	0	0.6417536546505289	0.2	infinite	0.5	2019-07-12-13:36:44
320	109_cue	10	321		Complete_cue	B	I	M	S	F4	F4176.png	F4108.png	F4113.png	F4108.png	S	1	0.42149523625903385	0.2	infinite	0.5	2019-07-12-13:36:59
321	109_cue	10	322		Complete_cue	B	I	A	S	M5	M5116.png	M5185.png	M5126.png	M5185.png	S	1	0.5322795219931322	0.2	infinite	0.5	2019-07-12-13:37:02
322	109_cue	10	323		Complete_cue	B	I	M	D	M2	M2118.png	M2134.png	M2118.png	M2161.png	S	0	0.3132186553734755	0.2	infinite	0.5	2019-07-12-13:37:05
323	109_cue	10	324		Complete_cue	B	C	M	S	F5	F5136.png	F5163.png	F5136.png	F5163.png	S	1	0.547016819298733	0.2	infinite	0.5	2019-07-12-13:37:08
324	109_cue	10	325		Complete_cue	T	I	M	S	F1	F1162.png	F1141.png	F1162.png	F1154.png	D	0	0.6974749397936648	0.2	infinite	0.5	2019-07-12-13:37:12
325	109_cue	10	326		Complete_cue	B	I	M	S	M4	M4114.png	M4183.png	M4115.png	M4183.png	S	1	0.3988979828968695	0.2	infinite	0.5	2019-07-12-13:37:15
326	109_cue	10	327		Complete_cue	T	C	A	S	F4	F4113.png	F4176.png	F4113.png	F4176.png	S	1	0.5125633863544863	0.2	infinite	0.5	2019-07-12-13:37:18
327	109_cue	10	328		Complete_cue	T	C	M	S	M3	M3186.png	M3124.png	M3186.png	M3124.png	S	1	0.5250813793049929	0.2	infinite	0.5	2019-07-12-13:37:21
328	109_cue	10	329		Complete_cue	T	C	M	D	M5	M5185.png	M5159.png	M5126.png	M5116.png	D	1	0.4475574659641097	0.2	infinite	0.5	2019-07-12-13:37:25
329	109_cue	10	330		Complete_cue	B	C	A	S	M2	M2134.png	M2161.png	M2134.png	M2161.png	S	1	0.3615547705899189	0.2	infinite	0.5	2019-07-12-13:37:28
330	109_cue	10	331		Complete_cue	B	I	A	S	F2	F2177.png	F2111.png	F2168.png	F2111.png	S	1	0.7493340964128947	0.2	infinite	0.5	2019-07-12-13:37:31
331	109_cue	10	332		Complete_cue	T	C	M	S	M1	M1110.png	M1190.png	M1110.png	M1190.png	S	1	0.9532592303398815	0.2	infinite	0.5	2019-07-12-13:37:35
332	109_cue	10	333		Complete_cue	B	I	M	S	F2	F2168.png	F2177.png	F2171.png	F2177.png	S	1	0.6754108584232199	0.2	infinite	0.5	2019-07-12-13:37:38
333	109_cue	10	334		Complete_cue	B	I	M	S	F2	F2171.png	F2168.png	F2111.png	F2168.png	S	1	0.6285988708432342	0.2	infinite	0.5	2019-07-12-13:37:42
334	109_cue	10	335		Complete_cue	B	C	M	D	M3	M3174.png	M3138.png	M3186.png	M3124.png	D	1	0.4433244909764653	0.2	infinite	0.5	2019-07-12-13:37:45
335	109_cue	10	336		Complete_cue	B	I	M	S	M2	M2134.png	M2161.png	M2118.png	M2161.png	S	1	0.463572194599692	0.2	infinite	0.5	2019-07-12-13:37:48
336	109_cue	10	337		Complete_cue	T	C	A	S	F2	F2177.png	F2111.png	F2177.png	F2111.png	S	1	0.31614981812163023	0.2	infinite	0.5	2019-07-12-13:37:51
337	109_cue	10	338		Complete_cue	B	C	M	S	M5	M5126.png	M5116.png	M5126.png	M5116.png	S	1	0.3210956139064365	0.2	infinite	0.5	2019-07-12-13:37:54
338	109_cue	10	339		Complete_cue	T	C	M	S	M4	M4147.png	M4115.png	M4147.png	M4115.png	S	1	0.39770941356528056	0.2	infinite	0.5	2019-07-12-13:37:58
339	109_cue	10	340		Complete_cue	T	C	A	D	F2	F2171.png	F2168.png	F2177.png	F2111.png	D	1	0.4718363604692968	0.2	infinite	0.5	2019-07-12-13:38:01
340	109_cue	10	341		Complete_cue	T	I	M	S	M1	M1173.png	M1110.png	M1173.png	M1190.png	D	0	0.5280988376403002	0.2	infinite	0.5	2019-07-12-13:38:04
341	109_cue	10	342		Complete_cue	B	I	A	D	M5	M5126.png	M5116.png	M5126.png	M5185.png	D	1	0.6820405409612249	0.2	infinite	0.5	2019-07-12-13:38:08
342	109_cue	10	343		Complete_cue	B	I	M	D	F3	F3146.png	F3184.png	F3146.png	F3132.png	D	1	0.7103875185139259	0.2	infinite	0.5	2019-07-12-13:38:11
343	109_cue	10	344		Complete_cue	B	I	M	S	F5	F5158.png	F5139.png	F5163.png	F5139.png	S	1	0.42120009893505994	0.2	infinite	0.5	2019-07-12-13:38:14
344	109_cue	10	345		Complete_cue	B	I	A	S	F1	F1154.png	F1157.png	F1141.png	F1157.png	S	1	0.40537849276597626	0.2	infinite	0.5	2019-07-12-13:38:17
345	109_cue	10	346		Complete_cue	B	C	A	S	F1	F1157.png	F1162.png	F1157.png	F1162.png	S	1	0.43032786227877295	0.2	infinite	0.5	2019-07-12-13:38:21
346	109_cue	10	347		Complete_cue	B	I	A	D	M3	M3124.png	M3174.png	M3124.png	M3138.png	D	1	0.5071902830527506	0.2	infinite	0.5	2019-07-12-13:38:24
347	109_cue	10	348		Complete_cue	T	C	M	D	F5	F5136.png	F5163.png	F5158.png	F5139.png	D	1	0.6569513020208433	0.2	infinite	0.5	2019-07-12-13:38:27
348	109_cue	10	349		Complete_cue	B	I	M	S	F5	F5139.png	F5136.png	F5158.png	F5136.png	S	1	0.38370675155465506	0.2	infinite	0.5	2019-07-12-13:38:31
349	109_cue	10	350		Complete_cue	B	C	A	D	F5	F5136.png	F5163.png	F5158.png	F5139.png	D	1	0.5969219743528811	0.2	infinite	0.5	2019-07-12-13:38:34
350	109_cue	10	351		Complete_cue	B	C	M	S	F2	F2171.png	F2168.png	F2171.png	F2168.png	S	1	0.49008162150994394	0.2	infinite	0.5	2019-07-12-13:38:37
351	109_cue	10	352		Complete_cue	B	C	M	D	F3	F3146.png	F3184.png	F3132.png	F3130.png	D	1	0.6137329321604739	0.2	infinite	0.5	2019-07-12-13:38:41
352	109_cue	10	353		Complete_cue	T	I	M	D	M4	M4115.png	M4114.png	M4147.png	M4114.png	S	0	0.5886292571553895	0.2	infinite	0.5	2019-07-12-13:38:44
353	109_cue	10	354		Complete_cue	B	I	M	D	M3	M3174.png	M3138.png	M3174.png	M3186.png	S	0	1.115686131721759	0.2	infinite	0.5	2019-07-12-13:38:48
354	109_cue	10	355		Complete_cue	B	I	M	S	M3	M3138.png	M3186.png	M3174.png	M3186.png	S	1	0.38634758900070665	0.2	infinite	0.5	2019-07-12-13:38:51
355	109_cue	10	356		Complete_cue	T	I	M	D	M1	M1190.png	M1119.png	M1110.png	M1119.png	S	0	0.43126556488459755	0.2	infinite	0.5	2019-07-12-13:38:54
356	109_cue	10	357		Complete_cue	T	C	A	S	M1	M1119.png	M1173.png	M1119.png	M1173.png	S	1	0.400638330703714	0.2	infinite	0.5	2019-07-12-13:38:57
357	109_cue	10	358		Complete_cue	B	C	A	D	M5	M5116.png	M5185.png	M5159.png	M5126.png	D	1	0.4605573026760794	0.2	infinite	0.5	2019-07-12-13:39:01
358	109_cue	10	359		Complete_cue	T	I	A	S	M4	M4183.png	M4147.png	M4183.png	M4115.png	S	1	0.36726503620411677	0.2	infinite	0.5	2019-07-12-13:39:04
359	109_cue	10	360		Complete_cue	B	I	M	D	M4	M4115.png	M4114.png	M4115.png	M4183.png	D	1	0.42157575742021436	0.2	infinite	0.5	2019-07-12-13:39:07
360	109_cue	10	361		Complete_cue	B	C	A	S	M4	M4183.png	M4147.png	M4183.png	M4147.png	S	1	1.6264100426246841	0.2	infinite	0.5	2019-07-12-13:39:22
361	109_cue	10	362		Complete_cue	B	C	A	S	M1	M1110.png	M1190.png	M1110.png	M1190.png	S	1	0.3484407285659472	0.2	infinite	0.5	2019-07-12-13:39:25
362	109_cue	10	363		Complete_cue	B	C	M	D	M2	M2161.png	M2127.png	M2118.png	M2134.png	D	1	0.6176730154338657	0.2	infinite	0.5	2019-07-12-13:39:28
363	109_cue	10	364		Complete_cue	B	I	A	D	M3	M3174.png	M3138.png	M3174.png	M3186.png	D	1	0.576335825212027	0.2	infinite	0.5	2019-07-12-13:39:32
364	109_cue	10	365		Complete_cue	T	I	M	D	M3	M3174.png	M3138.png	M3124.png	M3138.png	D	1	0.6071032496224689	0.2	infinite	0.5	2019-07-12-13:39:35
365	109_cue	10	366		Complete_cue	B	I	M	D	M4	M4183.png	M4147.png	M4183.png	M4115.png	S	0	0.7411616797548959	0.2	infinite	0.5	2019-07-12-13:39:38
366	109_cue	10	367		Complete_cue	T	C	A	S	M4	M4114.png	M4183.png	M4114.png	M4183.png	S	1	0.35373651872032497	0.2	infinite	0.5	2019-07-12-13:39:42
367	109_cue	10	368		Complete_cue	T	I	A	S	M2	M2127.png	M2118.png	M2127.png	M2134.png	D	0	1.715154627897391	0.2	infinite	0.5	2019-07-12-13:39:46
368	109_cue	10	369		Complete_cue	T	C	A	S	M3	M3124.png	M3174.png	M3124.png	M3174.png	S	1	0.36066550900113725	0.2	infinite	0.5	2019-07-12-13:39:49
369	109_cue	10	370		Complete_cue	T	I	A	S	M5	M5126.png	M5116.png	M5126.png	M5185.png	D	0	0.7007968386942593	0.2	infinite	0.5	2019-07-12-13:39:53
370	109_cue	10	371		Complete_cue	T	C	M	D	F2	F2111.png	F2171.png	F2168.png	F2177.png	D	1	0.7533572672596165	0.2	infinite	0.5	2019-07-12-13:39:56
371	109_cue	10	372		Complete_cue	T	C	A	S	M1	M1110.png	M1190.png	M1110.png	M1190.png	S	1	0.6066018369729136	0.2	infinite	0.5	2019-07-12-13:40:00
372	109_cue	10	373		Complete_cue	T	I	M	S	F2	F2177.png	F2111.png	F2177.png	F2171.png	D	0	0.46851125355397016	0.2	infinite	0.5	2019-07-12-13:40:03
373	109_cue	10	374		Complete_cue	T	C	A	D	F4	F4179.png	F4113.png	F4176.png	F4108.png	D	1	0.3970674898860125	0.2	infinite	0.5	2019-07-12-13:40:06
374	109_cue	10	375		Complete_cue	B	C	A	D	M4	M4147.png	M4115.png	M4114.png	M4183.png	S	0	0.6953878056315261	0.2	infinite	0.5	2019-07-12-13:40:09
375	109_cue	10	376		Complete_cue	T	I	M	S	M4	M4147.png	M4115.png	M4147.png	M4114.png	D	0	0.8134683992939244	0.2	infinite	0.5	2019-07-12-13:40:13
376	109_cue	10	377		Complete_cue	B	I	M	S	F4	F4108.png	F4179.png	F4176.png	F4179.png	S	1	0.540020460715823	0.2	infinite	0.5	2019-07-12-13:40:16
377	109_cue	10	378		Complete_cue	T	C	M	S	M1	M1190.png	M1119.png	M1190.png	M1119.png	S	1	0.4213454219866435	0.2	infinite	0.5	2019-07-12-13:40:19
378	109_cue	10	379		Complete_cue	B	I	M	D	M3	M3124.png	M3174.png	M3124.png	M3138.png	D	1	1.056891889594226	0.2	infinite	0.5	2019-07-12-13:40:23
379	109_cue	10	380		Complete_cue	B	I	A	S	F4	F4176.png	F4108.png	F4113.png	F4108.png	S	1	0.22776324725509767	0.2	infinite	0.5	2019-07-12-13:40:26
380	109_cue	10	381		Complete_cue	B	C	M	D	F3	F3184.png	F3132.png	F3130.png	F3146.png	D	1	0.7337527705212779	0.2	infinite	0.5	2019-07-12-13:40:30
381	109_cue	10	382		Complete_cue	B	C	M	D	F1	F1141.png	F1154.png	F1157.png	F1162.png	S	0	0.32796044389942836	0.2	infinite	0.5	2019-07-12-13:40:33
382	109_cue	10	383		Complete_cue	T	I	M	D	F1	F1141.png	F1154.png	F1162.png	F1154.png	S	0	0.3739216660628699	0.2	infinite	0.5	2019-07-12-13:40:36
383	109_cue	10	384		Complete_cue	B	I	A	S	M4	M4183.png	M4147.png	M4114.png	M4147.png	S	1	0.49201380857721233	0.2	infinite	0.5	2019-07-12-13:40:39
384	109_cue	10	385		Complete_cue	T	I	A	D	M3	M3124.png	M3174.png	M3186.png	M3174.png	S	0	0.6357370236619317	0.2	infinite	0.5	2019-07-12-13:40:43
385	109_cue	10	386		Complete_cue	T	C	A	S	M5	M5159.png	M5126.png	M5159.png	M5126.png	S	1	0.5027629023934423	0.2	infinite	0.5	2019-07-12-13:40:46
386	109_cue	10	387		Complete_cue	B	I	M	D	M5	M5185.png	M5159.png	M5185.png	M5126.png	S	0	0.3542369689653242	0.2	infinite	0.5	2019-07-12-13:40:49
387	109_cue	10	388		Complete_cue	T	C	A	S	F2	F2171.png	F2168.png	F2171.png	F2168.png	S	1	0.5945502893146113	0.2	infinite	0.5	2019-07-12-13:40:52
388	109_cue	10	389		Complete_cue	T	C	A	S	M5	M5126.png	M5116.png	M5126.png	M5116.png	S	1	0.3733474314872183	0.2	infinite	0.5	2019-07-12-13:40:56
389	109_cue	10	390		Complete_cue	T	C	A	D	M3	M3186.png	M3124.png	M3174.png	M3138.png	S	0	0.2540837221181391	0.2	infinite	0.5	2019-07-12-13:40:59
390	109_cue	10	391		Complete_cue	B	C	M	S	F1	F1154.png	F1157.png	F1154.png	F1157.png	S	1	0.34200256448639266	0.2	infinite	0.5	2019-07-12-13:41:02
391	109_cue	10	392		Complete_cue	T	I	A	D	M4	M4183.png	M4147.png	M4114.png	M4147.png	S	0	0.34344937897640193	0.2	infinite	0.5	2019-07-12-13:41:05
392	109_cue	10	393		Complete_cue	T	C	M	D	M4	M4147.png	M4115.png	M4114.png	M4183.png	S	0	0.7576685177982654	0.2	infinite	0.5	2019-07-12-13:41:08
393	109_cue	10	394		Complete_cue	T	I	M	D	F5	F5158.png	F5139.png	F5163.png	F5139.png	D	1	0.6667501819742938	0.2	infinite	0.5	2019-07-12-13:41:12
394	109_cue	10	395		Complete_cue	B	C	A	D	F1	F1141.png	F1154.png	F1157.png	F1162.png	S	0	0.5548700385247685	0.2	infinite	0.5	2019-07-12-13:41:15
395	109_cue	10	396		Complete_cue	T	I	A	D	F5	F5139.png	F5136.png	F5158.png	F5136.png	S	0	0.7374352502392867	0.2	infinite	0.5	2019-07-12-13:41:19
396	109_cue	10	397		Complete_cue	B	I	M	S	M5	M5116.png	M5185.png	M5126.png	M5185.png	S	1	0.7399179325761907	0.2	infinite	0.5	2019-07-12-13:41:22
397	109_cue	10	398		Complete_cue	T	C	A	D	F5	F5163.png	F5158.png	F5139.png	F5136.png	D	1	0.7664241514721652	0.2	infinite	0.5	2019-07-12-13:41:26
398	109_cue	10	399		Complete_cue	T	I	M	D	M5	M5159.png	M5126.png	M5185.png	M5126.png	S	0	0.5660583095113907	0.2	infinite	0.5	2019-07-12-13:41:29
399	109_cue	10	400		Complete_cue	T	C	A	D	M3	M3138.png	M3186.png	M3124.png	M3174.png	S	0	0.383643232869872	0.2	infinite	0.5	2019-07-12-13:41:32
400	109_cue	10	401		Complete_cue	B	C	M	S	F1	F1157.png	F1162.png	F1157.png	F1162.png	S	1	0.7415139197346434	0.2	infinite	0.5	2019-07-12-13:41:46
401	109_cue	10	402		Complete_cue	T	C	M	S	M5	M5185.png	M5159.png	M5185.png	M5159.png	S	1	0.47088614660697203	0.2	infinite	0.5	2019-07-12-13:41:50
402	109_cue	10	403		Complete_cue	T	I	A	D	F1	F1141.png	F1154.png	F1162.png	F1154.png	S	0	0.506740840236489	0.2	infinite	0.5	2019-07-12-13:41:53
403	109_cue	10	404		Complete_cue	B	C	M	D	F5	F5158.png	F5139.png	F5136.png	F5163.png	D	1	0.4272799278069215	0.2	infinite	0.5	2019-07-12-13:41:56
404	109_cue	10	405		Complete_cue	B	I	A	S	F3	F3130.png	F3146.png	F3132.png	F3146.png	S	1	0.301563618293585	0.2	infinite	0.5	2019-07-12-13:41:59
405	109_cue	10	406		Complete_cue	T	C	M	S	M5	M5126.png	M5116.png	M5126.png	M5116.png	S	1	0.48438554443873727	0.2	infinite	0.5	2019-07-12-13:42:02
406	109_cue	10	407		Complete_cue	T	I	A	D	F2	F2171.png	F2168.png	F2111.png	F2168.png	S	0	0.5464060133585917	0.2	infinite	0.5	2019-07-12-13:42:06
407	109_cue	10	408		Complete_cue	B	I	M	D	M2	M2134.png	M2161.png	M2134.png	M2127.png	D	1	0.5396204213211604	0.2	infinite	0.5	2019-07-12-13:42:09
408	109_cue	10	409		Complete_cue	B	C	M	S	F3	F3132.png	F3130.png	F3132.png	F3130.png	S	1	0.25400640897123594	0.2	infinite	0.5	2019-07-12-13:42:12
409	109_cue	10	410		Complete_cue	T	I	A	D	M2	M2134.png	M2161.png	M2118.png	M2161.png	D	1	0.8000669191801535	0.2	infinite	0.5	2019-07-12-13:42:16
410	109_cue	10	411		Complete_cue	B	I	A	S	M2	M2134.png	M2161.png	M2118.png	M2161.png	S	1	0.5563152490076391	0.2	infinite	0.5	2019-07-12-13:42:19
411	109_cue	10	412		Complete_cue	B	C	A	D	F5	F5139.png	F5136.png	F5163.png	F5158.png	D	1	0.6734151526711685	0.2	infinite	0.5	2019-07-12-13:42:22
412	109_cue	10	413		Complete_cue	T	I	M	D	F1	F1162.png	F1141.png	F1157.png	F1141.png	S	0	0.5792076396937773	0.2	infinite	0.5	2019-07-12-13:42:26
413	109_cue	10	414		Complete_cue	B	C	A	S	F3	F3184.png	F3132.png	F3184.png	F3132.png	S	1	0.3428703323793343	0.2	infinite	0.5	2019-07-12-13:42:29
414	109_cue	10	415		Complete_cue	B	C	M	D	F4	F4179.png	F4113.png	F4176.png	F4108.png	D	1	0.49741385919969616	0.2	infinite	0.5	2019-07-12-13:42:32
415	109_cue	10	416		Complete_cue	T	I	M	D	M4	M4114.png	M4183.png	M4115.png	M4183.png	S	0	0.7534535076911197	0.2	infinite	0.5	2019-07-12-13:42:36
416	109_cue	10	417		Complete_cue	T	I	A	D	M5	M5159.png	M5126.png	M5185.png	M5126.png	S	0	0.46683763244709553	0.2	infinite	0.5	2019-07-12-13:42:39
417	109_cue	10	418		Complete_cue	B	I	A	D	M3	M3138.png	M3186.png	M3138.png	M3124.png	D	1	0.5069140730138315	0.2	infinite	0.5	2019-07-12-13:42:42
418	109_cue	10	419		Complete_cue	B	I	M	D	M4	M4114.png	M4183.png	M4114.png	M4147.png	S	0	1.0507305771570827	0.2	infinite	0.5	2019-07-12-13:42:46
419	109_cue	10	420		Complete_cue	T	I	M	S	M4	M4183.png	M4147.png	M4183.png	M4115.png	S	1	0.6825672969239349	0.2	infinite	0.5	2019-07-12-13:42:49
420	109_cue	10	421		Complete_cue	T	I	M	D	F2	F2177.png	F2111.png	F2168.png	F2111.png	S	0	0.4745506614444821	0.2	infinite	0.5	2019-07-12-13:42:53
421	109_cue	10	422		Complete_cue	B	I	M	S	M5	M5185.png	M5159.png	M5116.png	M5159.png	D	0	0.6303960005043336	0.2	infinite	0.5	2019-07-12-13:42:56
422	109_cue	10	423		Complete_cue	T	I	A	D	F4	F4113.png	F4176.png	F4179.png	F4176.png	S	0	0.36658140833742436	0.2	infinite	0.5	2019-07-12-13:42:59
423	109_cue	10	424		Complete_cue	B	C	A	S	F5	F5136.png	F5163.png	F5136.png	F5163.png	S	1	0.7269984932640909	0.2	infinite	0.5	2019-07-12-13:43:03
424	109_cue	10	425		Complete_cue	B	I	A	D	M4	M4115.png	M4114.png	M4115.png	M4183.png	D	1	0.41334142608457114	0.2	infinite	0.5	2019-07-12-13:43:06
425	109_cue	10	426		Complete_cue	B	C	M	S	M3	M3174.png	M3138.png	M3174.png	M3138.png	D	0	1.5003774228925977	0.2	infinite	0.5	2019-07-12-13:43:10
426	109_cue	10	427		Complete_cue	T	C	M	D	M3	M3186.png	M3124.png	M3174.png	M3138.png	D	1	0.5963910479713377	0.2	infinite	0.5	2019-07-12-13:43:13
427	109_cue	10	428		Complete_cue	B	I	M	D	F2	F2177.png	F2111.png	F2177.png	F2171.png	D	1	0.5152247550918219	0.2	infinite	0.5	2019-07-12-13:43:17
428	109_cue	10	429		Complete_cue	T	C	M	D	M2	M2161.png	M2127.png	M2118.png	M2134.png	D	1	0.4370201010974597	0.2	infinite	0.5	2019-07-12-13:43:20
429	109_cue	10	430		Complete_cue	B	I	M	D	F3	F3132.png	F3130.png	F3132.png	F3146.png	D	1	0.7027412162160545	0.2	infinite	0.5	2019-07-12-13:43:23
430	109_cue	10	431		Complete_cue	T	C	M	S	F4	F4179.png	F4113.png	F4179.png	F4113.png	S	1	0.4143124920401533	0.2	infinite	0.5	2019-07-12-13:43:27
431	109_cue	10	432		Complete_cue	T	C	A	S	F3	F3184.png	F3132.png	F3184.png	F3132.png	S	1	0.35278758806407495	0.2	infinite	0.5	2019-07-12-13:43:30
432	109_cue	10	433		Complete_cue	T	I	M	D	F4	F4113.png	F4176.png	F4179.png	F4176.png	S	0	0.33490932386939676	0.2	infinite	0.5	2019-07-12-13:43:33
433	109_cue	10	434		Complete_cue	B	I	A	S	M3	M3174.png	M3138.png	M3124.png	M3138.png	S	1	0.4966712038685728	0.2	infinite	0.5	2019-07-12-13:43:36
434	109_cue	10	435		Complete_cue	T	C	A	S	F3	F3146.png	F3184.png	F3146.png	F3184.png	S	1	0.8124081505379763	0.2	infinite	0.5	2019-07-12-13:43:40
435	109_cue	10	436		Complete_cue	B	C	A	D	M5	M5185.png	M5159.png	M5126.png	M5116.png	D	1	0.4141591489524217	0.2	infinite	0.5	2019-07-12-13:43:43
436	109_cue	10	437		Complete_cue	T	C	M	S	F1	F1157.png	F1162.png	F1157.png	F1162.png	S	1	0.42715160723128065	0.2	infinite	0.5	2019-07-12-13:43:46
437	109_cue	10	438		Complete_cue	B	I	A	S	F2	F2171.png	F2168.png	F2111.png	F2168.png	S	1	0.3477664039410229	0.2	infinite	0.5	2019-07-12-13:43:49
438	109_cue	10	439		Complete_cue	B	C	M	D	M5	M5185.png	M5159.png	M5126.png	M5116.png	D	1	0.3986872163513908	0.2	infinite	0.5	2019-07-12-13:43:52
439	109_cue	10	440		Complete_cue	T	C	A	S	F4	F4179.png	F4113.png	F4179.png	F4113.png	S	1	0.583032555250611	0.2	infinite	0.5	2019-07-12-13:43:56
440	109_cue	10	441		Complete_cue	T	C	A	S	M2	M2161.png	M2127.png	M2161.png	M2127.png	S	1	1.0240440678521736	0.2	infinite	0.5	2019-07-12-13:44:10
441	109_cue	10	442		Complete_cue	T	C	M	D	M3	M3138.png	M3186.png	M3124.png	M3174.png	S	0	0.6183142975105511	0.2	infinite	0.5	2019-07-12-13:44:14
442	109_cue	10	443		Complete_cue	B	C	A	D	F3	F3130.png	F3146.png	F3184.png	F3132.png	S	0	0.6124263078991135	0.2	infinite	0.5	2019-07-12-13:44:17
443	109_cue	10	444		Complete_cue	T	C	A	S	F1	F1162.png	F1141.png	F1162.png	F1141.png	S	1	0.4071441838859755	0.2	infinite	0.5	2019-07-12-13:44:20
444	109_cue	10	445		Complete_cue	T	C	A	S	M2	M2134.png	M2161.png	M2134.png	M2161.png	S	1	0.4707517308038405	0.2	infinite	0.5	2019-07-12-13:44:23
445	109_cue	10	446		Complete_cue	B	I	A	S	M1	M1190.png	M1119.png	M1110.png	M1119.png	S	1	0.3013801198708279	0.2	infinite	0.5	2019-07-12-13:44:27
446	109_cue	10	447		Complete_cue	T	C	A	S	M1	M1173.png	M1110.png	M1173.png	M1110.png	S	1	0.24323229264291513	0.2	infinite	0.5	2019-07-12-13:44:30
447	109_cue	10	448		Complete_cue	B	I	M	D	F1	F1141.png	F1154.png	F1141.png	F1157.png	S	0	0.28838958640017154	0.2	infinite	0.5	2019-07-12-13:44:33
448	109_cue	10	449		Complete_cue	B	C	A	D	F3	F3146.png	F3184.png	F3132.png	F3130.png	D	1	0.5163809234782093	0.2	infinite	0.5	2019-07-12-13:44:36
449	109_cue	10	450		Complete_cue	B	I	A	D	F3	F3146.png	F3184.png	F3146.png	F3132.png	S	0	0.22877665900023203	0.2	infinite	0.5	2019-07-12-13:44:39
450	109_cue	10	451		Complete_cue	T	C	A	S	M2	M2118.png	M2134.png	M2118.png	M2134.png	S	1	0.30458114990869944	0.2	infinite	0.5	2019-07-12-13:44:42
451	109_cue	10	452		Complete_cue	T	I	M	S	F3	F3130.png	F3146.png	F3130.png	F3184.png	S	1	0.22992833616672215	0.2	infinite	0.5	2019-07-12-13:44:45
452	109_cue	10	453		Complete_cue	B	I	M	S	M4	M4115.png	M4114.png	M4147.png	M4114.png	S	1	0.5087554732735953	0.2	infinite	0.5	2019-07-12-13:44:48
453	109_cue	10	454		Complete_cue	T	I	A	D	M1	M1190.png	M1119.png	M1110.png	M1119.png	S	0	0.38828394648635367	0.2	infinite	0.5	2019-07-12-13:44:51
454	109_cue	10	455		Complete_cue	B	I	M	S	F2	F2111.png	F2171.png	F2177.png	F2171.png	S	1	0.24921267306854133	0.2	infinite	0.5	2019-07-12-13:44:54
455	109_cue	10	456		Complete_cue	T	C	A	D	M3	M3124.png	M3174.png	M3138.png	M3186.png	S	0	0.21072227481590744	0.2	infinite	0.5	2019-07-12-13:44:57
456	109_cue	10	457		Complete_cue	T	C	A	S	F1	F1154.png	F1157.png	F1154.png	F1157.png	S	1	0.5550865794962192	0.2	infinite	0.5	2019-07-12-13:45:01
457	109_cue	10	458		Complete_cue	B	C	M	S	F2	F2111.png	F2171.png	F2111.png	F2171.png	S	1	0.3244698034418434	0.2	infinite	0.5	2019-07-12-13:45:04
458	109_cue	10	459		Complete_cue	T	I	A	D	F3	F3130.png	F3146.png	F3132.png	F3146.png	S	0	0.35377276928329593	0.2	infinite	0.5	2019-07-12-13:45:07
459	109_cue	10	460		Complete_cue	T	I	A	D	M1	M1173.png	M1110.png	M1119.png	M1110.png	S	0	0.38299649716918793	0.2	infinite	0.5	2019-07-12-13:45:10
460	109_cue	10	461		Complete_cue	B	I	M	D	M2	M2127.png	M2118.png	M2127.png	M2134.png	S	0	0.2673167814759836	0.2	infinite	0.5	2019-07-12-13:45:13
461	109_cue	10	462		Complete_cue	B	C	M	S	F5	F5163.png	F5158.png	F5163.png	F5158.png	S	1	0.330358113854345	0.2	infinite	0.5	2019-07-12-13:45:16
462	109_cue	10	463		Complete_cue	B	C	A	D	F5	F5158.png	F5139.png	F5136.png	F5163.png	S	0	0.2932317633203638	0.2	infinite	0.5	2019-07-12-13:45:19
463	109_cue	10	464		Complete_cue	T	I	A	S	M4	M4147.png	M4115.png	M4147.png	M4114.png	D	0	0.6027101947165647	0.2	infinite	0.5	2019-07-12-13:45:23
464	109_cue	10	465		Complete_cue	T	C	M	D	F3	F3130.png	F3146.png	F3184.png	F3132.png	S	0	0.7199733863126312	0.2	infinite	0.5	2019-07-12-13:45:26
465	109_cue	10	466		Complete_cue	T	I	A	D	M3	M3174.png	M3138.png	M3124.png	M3138.png	S	0	0.3177137251368549	0.2	infinite	0.5	2019-07-12-13:45:29
466	109_cue	10	467		Complete_cue	T	I	M	D	F3	F3184.png	F3132.png	F3146.png	F3132.png	S	0	0.39437853222443664	0.2	infinite	0.5	2019-07-12-13:45:32
467	109_cue	10	468		Complete_cue	B	I	M	S	M3	M3174.png	M3138.png	M3124.png	M3138.png	D	0	0.897144001029119	0.2	infinite	0.5	2019-07-12-13:45:36
468	109_cue	10	469		Complete_cue	T	I	M	S	F3	F3184.png	F3132.png	F3184.png	F3130.png	D	0	0.5869376711675613	0.2	infinite	0.5	2019-07-12-13:45:39
469	109_cue	10	470		Complete_cue	T	I	A	S	M4	M4115.png	M4114.png	M4115.png	M4183.png	S	1	0.8927894422963618	0.2	infinite	0.5	2019-07-12-13:45:43
470	109_cue	10	471		Complete_cue	B	I	A	D	F1	F1162.png	F1141.png	F1162.png	F1154.png	S	0	0.5892407046981134	0.2	infinite	0.5	2019-07-12-13:45:46
471	109_cue	10	472		Complete_cue	T	I	A	S	M1	M1173.png	M1110.png	M1173.png	M1190.png	D	0	0.38231607731677286	0.2	infinite	0.5	2019-07-12-13:45:50
472	109_cue	10	473		Complete_cue	B	C	A	D	F1	F1154.png	F1157.png	F1162.png	F1141.png	D	1	0.6607258517519767	0.2	infinite	0.5	2019-07-12-13:45:53
473	109_cue	10	474		Complete_cue	B	C	A	S	F4	F4108.png	F4179.png	F4108.png	F4179.png	S	1	0.7734211516581126	0.2	infinite	0.5	2019-07-12-13:45:57
474	109_cue	10	475		Complete_cue	T	I	A	S	F4	F4113.png	F4176.png	F4113.png	F4108.png	D	0	0.5070449600007123	0.2	infinite	0.5	2019-07-12-13:46:00
475	109_cue	10	476		Complete_cue	B	C	A	S	F4	F4113.png	F4176.png	F4113.png	F4176.png	S	1	0.664731057717745	0.2	infinite	0.5	2019-07-12-13:46:03
476	109_cue	10	477		Complete_cue	B	C	A	D	M2	M2127.png	M2118.png	M2134.png	M2161.png	D	1	0.4765608032612363	0.2	infinite	0.5	2019-07-12-13:46:06
477	109_cue	10	478		Complete_cue	B	I	A	D	F1	F1154.png	F1157.png	F1154.png	F1162.png	S	0	0.42029223086274214	0.2	infinite	0.5	2019-07-12-13:46:10
478	109_cue	10	479		Complete_cue	T	C	A	D	M5	M5159.png	M5126.png	M5116.png	M5185.png	D	1	0.4702246540396118	0.2	infinite	0.5	2019-07-12-13:46:13
479	109_cue	10	480		Complete_cue	B	C	A	S	F3	F3146.png	F3184.png	F3146.png	F3184.png	S	1	0.6671771686897046	0.2	infinite	0.5	2019-07-12-13:46:16
480	109_cue	10	481		Complete_cue	T	I	A	D	F5	F5158.png	F5139.png	F5163.png	F5139.png	S	0	1.219904895205218	0.2	infinite	0.5	2019-07-12-13:46:31
481	109_cue	10	482		Complete_cue	T	I	A	D	M4	M4114.png	M4183.png	M4115.png	M4183.png	S	0	0.7067191540595559	0.2	infinite	0.5	2019-07-12-13:46:35
482	109_cue	10	483		Complete_cue	T	I	A	D	M3	M3138.png	M3186.png	M3174.png	M3186.png	S	0	0.5693285593802102	0.2	infinite	0.5	2019-07-12-13:46:38
483	109_cue	10	484		Complete_cue	B	I	M	S	F1	F1141.png	F1154.png	F1162.png	F1154.png	S	1	0.4552419436336095	0.2	infinite	0.5	2019-07-12-13:46:41
484	109_cue	10	485		Complete_cue	B	I	M	D	F5	F5158.png	F5139.png	F5158.png	F5136.png	D	1	0.5531216706826854	0.2	infinite	0.5	2019-07-12-13:46:44
485	109_cue	10	486		Complete_cue	B	C	M	S	M2	M2127.png	M2118.png	M2127.png	M2118.png	S	1	0.34109854603138956	0.2	infinite	0.5	2019-07-12-13:46:47
486	109_cue	10	487		Complete_cue	T	C	M	S	F2	F2177.png	F2111.png	F2177.png	F2111.png	S	1	0.7866914239830294	0.2	infinite	0.5	2019-07-12-13:46:51
487	109_cue	10	488		Complete_cue	T	C	M	S	F2	F2168.png	F2177.png	F2168.png	F2177.png	S	1	0.5866197569416727	0.2	infinite	0.5	2019-07-12-13:46:54
488	109_cue	10	489		Complete_cue	B	C	M	S	F5	F5158.png	F5139.png	F5158.png	F5139.png	S	1	0.4134835411214226	0.2	infinite	0.5	2019-07-12-13:46:58
489	109_cue	10	490		Complete_cue	T	C	M	D	F2	F2177.png	F2111.png	F2171.png	F2168.png	S	0	0.4277624131709672	0.2	infinite	0.5	2019-07-12-13:47:01
490	109_cue	10	491		Complete_cue	T	I	A	S	M3	M3186.png	M3124.png	M3186.png	M3174.png	D	0	0.5081119455871885	0.2	infinite	0.5	2019-07-12-13:47:04
491	109_cue	10	492		Complete_cue	B	I	A	S	F4	F4108.png	F4179.png	F4176.png	F4179.png	S	1	0.4951323193654389	0.2	infinite	0.5	2019-07-12-13:47:07
492	109_cue	10	493		Complete_cue	T	C	M	D	F1	F1141.png	F1154.png	F1157.png	F1162.png	S	0	0.3933837269619289	0.2	infinite	0.5	2019-07-12-13:47:11
493	109_cue	10	494		Complete_cue	T	C	A	D	F1	F1141.png	F1154.png	F1157.png	F1162.png	S	0	0.5810451903362264	0.2	infinite	0.5	2019-07-12-13:47:14
494	109_cue	10	495		Complete_cue	B	C	M	S	F2	F2168.png	F2177.png	F2168.png	F2177.png	S	1	0.5643901420285147	0.2	infinite	0.5	2019-07-12-13:47:17
495	109_cue	10	496		Complete_cue	B	I	M	D	M1	M1173.png	M1110.png	M1173.png	M1190.png	S	0	0.3071449217291047	0.2	infinite	0.5	2019-07-12-13:47:20
496	109_cue	10	497		Complete_cue	B	C	A	S	M3	M3138.png	M3186.png	M3138.png	M3186.png	S	1	0.3418960584085653	0.2	infinite	0.5	2019-07-12-13:47:23
497	109_cue	10	498		Complete_cue	B	I	A	S	F5	F5158.png	F5139.png	F5163.png	F5139.png	S	1	0.37455204089064864	0.2	infinite	0.5	2019-07-12-13:47:27
498	109_cue	10	499		Complete_cue	B	C	A	D	F4	F4179.png	F4113.png	F4176.png	F4108.png	S	0	0.5884739892590005	0.2	infinite	0.5	2019-07-12-13:47:30
499	109_cue	10	500		Complete_cue	T	I	A	S	M2	M2134.png	M2161.png	M2134.png	M2127.png	S	1	0.44665376831017056	0.2	infinite	0.5	2019-07-12-13:47:33
500	109_cue	10	501		Complete_cue	B	C	A	S	F2	F2111.png	F2171.png	F2111.png	F2171.png	S	1	0.36797881940583466	0.2	infinite	0.5	2019-07-12-13:47:36
501	109_cue	10	502		Complete_cue	T	I	A	D	M2	M2127.png	M2118.png	M2161.png	M2118.png	S	0	0.3719788925482135	0.2	infinite	0.5	2019-07-12-13:47:39
502	109_cue	10	503		Complete_cue	T	I	A	S	F1	F1154.png	F1157.png	F1154.png	F1162.png	S	1	0.429088927121029	0.2	infinite	0.5	2019-07-12-13:47:43
503	109_cue	10	504		Complete_cue	B	C	M	D	M5	M5126.png	M5116.png	M5185.png	M5159.png	S	0	0.4935504474701702	0.2	infinite	0.5	2019-07-12-13:47:46
504	109_cue	10	505		Complete_cue	B	I	A	D	M3	M3186.png	M3124.png	M3186.png	M3174.png	D	1	0.6069377160797558	0.2	infinite	0.5	2019-07-12-13:47:49
505	109_cue	10	506		Complete_cue	T	C	M	S	F2	F2111.png	F2171.png	F2111.png	F2171.png	S	1	0.5601433725787501	0.2	infinite	0.5	2019-07-12-13:47:53
506	109_cue	10	507		Complete_cue	T	C	A	D	M3	M3174.png	M3138.png	M3186.png	M3124.png	D	1	0.48900533268260915	0.2	infinite	0.5	2019-07-12-13:47:56
507	109_cue	10	508		Complete_cue	B	C	A	D	F2	F2177.png	F2111.png	F2171.png	F2168.png	D	1	0.473758602691305	0.2	infinite	0.5	2019-07-12-13:47:59
508	109_cue	10	509		Complete_cue	T	I	M	D	F2	F2111.png	F2171.png	F2177.png	F2171.png	S	0	0.35400631273114413	0.2	infinite	0.5	2019-07-12-13:48:02
509	109_cue	10	510		Complete_cue	T	C	M	D	F3	F3132.png	F3130.png	F3146.png	F3184.png	S	0	0.5311592833681971	0.2	infinite	0.5	2019-07-12-13:48:05
510	109_cue	10	511		Complete_cue	T	I	M	D	M4	M4147.png	M4115.png	M4183.png	M4115.png	S	0	0.5067799780126734	0.2	infinite	0.5	2019-07-12-13:48:09
511	109_cue	10	512		Complete_cue	T	I	M	D	F5	F5139.png	F5136.png	F5158.png	F5136.png	S	0	0.3604933119081579	0.2	infinite	0.5	2019-07-12-13:48:12
512	109_cue	10	513		Complete_cue	B	I	A	S	M1	M1110.png	M1190.png	M1173.png	M1190.png	S	1	0.6082019945506545	0.2	infinite	0.5	2019-07-12-13:48:15
513	109_cue	10	514		Complete_cue	T	C	M	D	M4	M4114.png	M4183.png	M4147.png	M4115.png	S	0	0.5304028335749535	0.2	infinite	0.5	2019-07-12-13:48:19
514	109_cue	10	515		Complete_cue	T	I	A	S	F3	F3146.png	F3184.png	F3146.png	F3132.png	S	1	0.35634688002937764	0.2	infinite	0.5	2019-07-12-13:48:22
515	109_cue	10	516		Complete_cue	B	I	M	D	M5	M5116.png	M5185.png	M5116.png	M5159.png	S	0	0.6466032100033772	0.2	infinite	0.5	2019-07-12-13:48:25
516	109_cue	10	517		Complete_cue	B	I	A	D	M5	M5116.png	M5185.png	M5116.png	M5159.png	D	1	1.0263163044446628	0.2	infinite	0.5	2019-07-12-13:48:29
517	109_cue	10	518		Complete_cue	T	I	A	S	F1	F1141.png	F1154.png	F1141.png	F1157.png	D	0	0.6065450551186586	0.2	infinite	0.5	2019-07-12-13:48:32
518	109_cue	10	519		Complete_cue	B	C	M	D	M2	M2134.png	M2161.png	M2127.png	M2118.png	S	0	0.4353759937225732	0.2	infinite	0.5	2019-07-12-13:48:35
519	109_cue	10	520		Complete_cue	T	C	M	S	F4	F4108.png	F4179.png	F4108.png	F4179.png	S	1	0.5599820094553252	0.2	infinite	0.5	2019-07-12-13:48:39
520	109_cue	10	521		Complete_cue	B	C	A	D	M5	M5159.png	M5126.png	M5116.png	M5185.png	D	1	0.47318244330745074	0.2	infinite	0.5	2019-07-12-13:48:52
521	109_cue	10	522		Complete_cue	T	C	M	D	M4	M4183.png	M4147.png	M4115.png	M4114.png	S	0	1.2492287131403828	0.2	infinite	0.5	2019-07-12-13:48:56
522	109_cue	10	523		Complete_cue	B	C	M	S	F4	F4179.png	F4113.png	F4179.png	F4113.png	S	1	0.8881827336322203	0.2	infinite	0.5	2019-07-12-13:49:00
523	109_cue	10	524		Complete_cue	B	I	M	D	M4	M4147.png	M4115.png	M4147.png	M4114.png	S	0	3.792096607428448	0.2	infinite	0.5	2019-07-12-13:49:07
524	109_cue	10	525		Complete_cue	B	I	M	S	M2	M2161.png	M2127.png	M2134.png	M2127.png	S	1	0.3402625374815216	0.2	infinite	0.5	2019-07-12-13:49:10
525	109_cue	10	526		Complete_cue	B	C	M	S	M4	M4147.png	M4115.png	M4147.png	M4115.png	S	1	0.34134395913270055	0.2	infinite	0.5	2019-07-12-13:49:13
526	109_cue	10	527		Complete_cue	B	I	M	S	M1	M1110.png	M1190.png	M1173.png	M1190.png	S	1	0.34083452644745194	0.2	infinite	0.5	2019-07-12-13:49:16
527	109_cue	10	528		Complete_cue	B	I	A	S	F1	F1162.png	F1141.png	F1157.png	F1141.png	S	1	0.35458888814355305	0.2	infinite	0.5	2019-07-12-13:49:19
528	109_cue	10	529		Complete_cue	T	C	A	D	M2	M2161.png	M2127.png	M2118.png	M2134.png	D	1	0.7067637454597389	0.2	infinite	0.5	2019-07-12-13:49:22
529	109_cue	10	530		Complete_cue	T	I	M	S	F1	F1154.png	F1157.png	F1154.png	F1162.png	D	0	0.7132311024693081	0.2	infinite	0.5	2019-07-12-13:49:26
530	109_cue	10	531		Complete_cue	B	I	M	S	M2	M2127.png	M2118.png	M2161.png	M2118.png	S	1	0.2885897664982622	0.2	infinite	0.5	2019-07-12-13:49:29
531	109_cue	10	532		Complete_cue	T	I	M	D	M2	M2134.png	M2161.png	M2118.png	M2161.png	D	1	0.6018992086792423	0.2	infinite	0.5	2019-07-12-13:49:32
532	109_cue	10	533		Complete_cue	T	I	M	S	F5	F5139.png	F5136.png	F5139.png	F5163.png	S	1	0.6494272250706672	0.2	infinite	0.5	2019-07-12-13:49:36
533	109_cue	10	534		Complete_cue	B	C	A	S	M3	M3174.png	M3138.png	M3174.png	M3138.png	S	1	0.3601807780269155	0.2	infinite	0.5	2019-07-12-13:49:39
534	109_cue	10	535		Complete_cue	B	I	M	S	F1	F1154.png	F1157.png	F1141.png	F1157.png	D	0	0.0005421544315140636	0.2	infinite	0.5	2019-07-12-13:49:42
535	109_cue	10	536		Complete_cue	T	I	M	S	M5	M5185.png	M5159.png	M5185.png	M5126.png	S	1	0.0005389464176914771	0.2	infinite	0.5	2019-07-12-13:49:44
536	109_cue	10	537		Complete_cue	B	C	M	S	M4	M4183.png	M4147.png	M4183.png	M4147.png	D	0	0.0003852825284411665	0.2	infinite	0.5	2019-07-12-13:49:47
537	109_cue	10	538		Complete_cue	T	I	A	S	F3	F3184.png	F3132.png	F3184.png	F3130.png	D	0	0.16032276474379614	0.2	infinite	0.5	2019-07-12-13:49:50
538	109_cue	10	539		Complete_cue	B	I	M	D	M3	M3186.png	M3124.png	M3186.png	M3174.png	S	0	0.0005469664533848118	0.2	infinite	0.5	2019-07-12-13:49:53
539	109_cue	10	540		Complete_cue	B	C	M	S	F4	F4108.png	F4179.png	F4108.png	F4179.png	D	0	0.15389486631102045	0.2	infinite	0.5	2019-07-12-13:49:56
540	109_cue	10	541		Complete_cue	T	C	M	S	M1	M1173.png	M1110.png	M1173.png	M1110.png	D	0	0.08027189846734473	0.2	infinite	0.5	2019-07-12-13:49:59
541	109_cue	10	542		Complete_cue	T	I	A	D	M4	M4147.png	M4115.png	M4183.png	M4115.png	S	0	0.12256379377186022	0.2	infinite	0.5	2019-07-12-13:50:02
542	109_cue	10	543		Complete_cue	T	I	M	D	F1	F1154.png	F1157.png	F1141.png	F1157.png	D	1	0.0005367008075154445	0.2	infinite	0.5	2019-07-12-13:50:04
543	109_cue	10	544		Complete_cue	B	I	A	S	F3	F3132.png	F3130.png	F3184.png	F3130.png	S	1	0.014110772095136781	0.2	infinite	0.5	2019-07-12-13:50:07
544	109_cue	10	545		Complete_cue	T	C	M	D	F4	F4108.png	F4179.png	F4113.png	F4176.png	D	1	0.0002944957209365384	0.2	infinite	0.5	2019-07-12-13:50:10
545	109_cue	10	546		Complete_cue	B	C	M	D	F5	F5163.png	F5158.png	F5139.png	F5136.png	D	1	0.10025750731529115	0.2	infinite	0.5	2019-07-12-13:50:13
546	109_cue	10	547		Complete_cue	B	I	A	D	F3	F3132.png	F3130.png	F3132.png	F3146.png	S	0	0.08737283831987952	0.2	infinite	0.5	2019-07-12-13:50:16
547	109_cue	10	548		Complete_cue	B	C	A	S	M1	M1119.png	M1173.png	M1119.png	M1173.png	S	1	0.0001459646550756588	0.2	infinite	0.5	2019-07-12-13:50:18
548	109_cue	10	549		Complete_cue	B	C	M	D	M1	M1173.png	M1110.png	M1190.png	M1119.png	D	1	0.1069381972820338	0.2	infinite	0.5	2019-07-12-13:50:21
549	109_cue	10	550		Complete_cue	T	C	A	D	M2	M2118.png	M2134.png	M2161.png	M2127.png	S	0	0.00013024538429817767	0.2	infinite	0.5	2019-07-12-13:50:24
550	109_cue	10	551		Complete_cue	T	C	A	D	M1	M1119.png	M1173.png	M1110.png	M1190.png	S	0	0.0870058414734558	0.2	infinite	0.5	2019-07-12-13:50:27
551	109_cue	10	552		Complete_cue	B	C	M	D	M3	M3124.png	M3174.png	M3138.png	M3186.png	S	0	0.0058940848384736455	0.2	infinite	0.5	2019-07-12-13:50:30
552	109_cue	10	553		Complete_cue	B	C	A	S	F1	F1154.png	F1157.png	F1154.png	F1157.png	D	0	0.11140631972421033	0.2	infinite	0.5	2019-07-12-13:50:33
553	109_cue	10	554		Complete_cue	T	C	A	D	F5	F5158.png	F5139.png	F5136.png	F5163.png	D	1	0.000532530388682062	0.2	infinite	0.5	2019-07-12-13:50:35
554	109_cue	10	555		Complete_cue	T	I	M	D	F4	F4108.png	F4179.png	F4176.png	F4179.png	S	0	0.17723541660734554	0.2	infinite	0.5	2019-07-12-13:50:38
555	109_cue	10	556		Complete_cue	T	I	M	S	F1	F1157.png	F1162.png	F1157.png	F1141.png	S	1	0.00033972872370213736	0.2	infinite	0.5	2019-07-12-13:50:41
556	109_cue	10	557		Complete_cue	B	C	A	D	M4	M4183.png	M4147.png	M4115.png	M4114.png	D	1	0.0874693995524467	0.2	infinite	0.5	2019-07-12-13:50:44
557	109_cue	10	558		Complete_cue	T	I	M	D	F4	F4176.png	F4108.png	F4113.png	F4108.png	S	0	0.0005277183672660613	0.2	infinite	0.5	2019-07-12-13:50:47
558	109_cue	10	559		Complete_cue	B	C	A	S	M2	M2127.png	M2118.png	M2127.png	M2118.png	S	1	0.3868842898082221	0.2	infinite	0.5	2019-07-12-13:50:50
559	109_cue	10	560		Complete_cue	T	C	M	D	F5	F5139.png	F5136.png	F5163.png	F5158.png	S	0	0.40766163660691745	0.2	infinite	0.5	2019-07-12-13:50:53
560	109_cue	10	561		Complete_cue	B	I	M	D	F4	F4179.png	F4113.png	F4179.png	F4176.png	S	0	1.5494465693977872	0.2	infinite	0.5	2019-07-12-13:51:09
561	109_cue	10	562		Complete_cue	B	I	M	D	M5	M5159.png	M5126.png	M5159.png	M5116.png	D	1	0.49776321196668505	0.2	infinite	0.5	2019-07-12-13:51:12
562	109_cue	10	563		Complete_cue	T	C	M	S	M4	M4114.png	M4183.png	M4114.png	M4183.png	S	1	0.38028444180417864	0.2	infinite	0.5	2019-07-12-13:51:15
563	109_cue	10	564		Complete_cue	T	C	A	S	M2	M2127.png	M2118.png	M2127.png	M2118.png	S	1	0.33851288643336375	0.2	infinite	0.5	2019-07-12-13:51:18
564	109_cue	10	565		Complete_cue	T	C	M	D	M3	M3124.png	M3174.png	M3138.png	M3186.png	D	1	0.5294109155256592	0.2	infinite	0.5	2019-07-12-13:51:21
565	109_cue	10	566		Complete_cue	T	I	A	S	F2	F2111.png	F2171.png	F2111.png	F2168.png	D	0	0.5648488880865443	0.2	infinite	0.5	2019-07-12-13:51:25
566	109_cue	10	567		Complete_cue	T	C	A	D	F4	F4176.png	F4108.png	F4179.png	F4113.png	D	1	0.43692738948175247	0.2	infinite	0.5	2019-07-12-13:51:28
567	109_cue	10	568		Complete_cue	T	I	A	S	F5	F5163.png	F5158.png	F5163.png	F5139.png	S	1	0.38822844783726396	0.2	infinite	0.5	2019-07-12-13:51:31
568	109_cue	10	569		Complete_cue	T	I	A	D	M4	M4115.png	M4114.png	M4147.png	M4114.png	S	0	0.5154666393768821	0.2	infinite	0.5	2019-07-12-13:51:34
569	109_cue	10	570		Complete_cue	T	C	M	D	M1	M1110.png	M1190.png	M1119.png	M1173.png	S	0	0.40255030727985286	0.2	infinite	0.5	2019-07-12-13:51:38
570	109_cue	10	571		Complete_cue	B	I	A	D	F2	F2171.png	F2168.png	F2171.png	F2177.png	S	0	0.7467631936806356	0.2	infinite	0.5	2019-07-12-13:51:41
571	109_cue	10	572		Complete_cue	B	C	A	S	M2	M2118.png	M2134.png	M2118.png	M2134.png	S	1	0.34815746089498134	0.2	infinite	0.5	2019-07-12-13:51:44
572	109_cue	10	573		Complete_cue	T	C	M	D	M2	M2118.png	M2134.png	M2161.png	M2127.png	D	1	0.8937351649383345	0.2	infinite	0.5	2019-07-12-13:51:48
573	109_cue	10	574		Complete_cue	B	C	A	S	F1	F1141.png	F1154.png	F1141.png	F1154.png	S	1	0.23648936719655467	0.2	infinite	0.5	2019-07-12-13:51:51
574	109_cue	10	575		Complete_cue	T	C	M	S	M4	M4115.png	M4114.png	M4115.png	M4114.png	S	1	0.601088543442529	0.2	infinite	0.5	2019-07-12-13:51:54
575	109_cue	10	576		Complete_cue	B	C	M	D	M4	M4114.png	M4183.png	M4147.png	M4115.png	D	1	0.5072194759836748	0.2	infinite	0.5	2019-07-12-13:51:57
576	109_cue	10	577		Complete_cue	T	I	A	D	F3	F3184.png	F3132.png	F3146.png	F3132.png	S	0	0.6496152147137764	0.2	infinite	0.5	2019-07-12-13:52:01
577	109_cue	10	578		Complete_cue	B	I	M	D	F2	F2168.png	F2177.png	F2168.png	F2111.png	D	1	0.9234182804848388	0.2	infinite	0.5	2019-07-12-13:52:05
578	109_cue	10	579		Complete_cue	T	C	A	S	F5	F5136.png	F5163.png	F5136.png	F5163.png	S	1	0.3147103820647317	0.2	infinite	0.5	2019-07-12-13:52:08
579	109_cue	10	580		Complete_cue	T	I	A	S	F2	F2177.png	F2111.png	F2177.png	F2171.png	D	0	0.5341045613790811	0.2	infinite	0.5	2019-07-12-13:52:11
580	109_cue	10	581		Complete_cue	B	I	A	D	M2	M2134.png	M2161.png	M2134.png	M2127.png	D	1	0.9867406349235353	0.2	infinite	0.5	2019-07-12-13:52:15
581	109_cue	10	582		Complete_cue	B	C	A	S	M4	M4147.png	M4115.png	M4147.png	M4115.png	S	1	0.3143209291179119	0.2	infinite	0.5	2019-07-12-13:52:18
582	109_cue	10	583		Complete_cue	T	I	M	D	M4	M4183.png	M4147.png	M4114.png	M4147.png	S	0	0.6478450323738798	0.2	infinite	0.5	2019-07-12-13:52:21
583	109_cue	10	584		Complete_cue	T	I	M	D	F4	F4179.png	F4113.png	F4108.png	F4113.png	S	0	0.4466871316599281	0.2	infinite	0.5	2019-07-12-13:52:24
584	109_cue	10	585		Complete_cue	T	C	A	S	F1	F1157.png	F1162.png	F1157.png	F1162.png	S	1	0.38843215675160536	0.2	infinite	0.5	2019-07-12-13:52:28
585	109_cue	10	586		Complete_cue	B	C	M	S	M5	M5159.png	M5126.png	M5159.png	M5126.png	S	1	0.3332972966381931	0.2	infinite	0.5	2019-07-12-13:52:31
586	109_cue	10	587		Complete_cue	B	C	M	D	F4	F4108.png	F4179.png	F4113.png	F4176.png	D	1	0.5377623393869726	0.2	infinite	0.5	2019-07-12-13:52:34
587	109_cue	10	588		Complete_cue	B	C	A	S	F3	F3132.png	F3130.png	F3132.png	F3130.png	S	1	0.31080879496403213	0.2	infinite	0.5	2019-07-12-13:52:37
588	109_cue	10	589		Complete_cue	T	I	M	D	F5	F5136.png	F5163.png	F5139.png	F5163.png	S	0	0.4771401706598226	0.2	infinite	0.5	2019-07-12-13:52:40
589	109_cue	10	590		Complete_cue	T	I	M	S	M1	M1119.png	M1173.png	M1119.png	M1110.png	S	1	0.3404678504025469	0.2	infinite	0.5	2019-07-12-13:52:43
590	109_cue	10	591		Complete_cue	B	I	M	S	M1	M1119.png	M1173.png	M1190.png	M1173.png	S	1	0.3552166965600918	0.2	infinite	0.5	2019-07-12-13:52:47
591	109_cue	10	592		Complete_cue	B	C	M	S	M4	M4115.png	M4114.png	M4115.png	M4114.png	S	1	0.38832244265950067	0.2	infinite	0.5	2019-07-12-13:52:50
592	109_cue	10	593		Complete_cue	B	I	A	D	F5	F5158.png	F5139.png	F5158.png	F5136.png	S	0	0.2580417702720297	0.2	infinite	0.5	2019-07-12-13:52:53
593	109_cue	10	594		Complete_cue	B	I	A	S	M1	M1119.png	M1173.png	M1190.png	M1173.png	S	1	0.5282685416013919	0.2	infinite	0.5	2019-07-12-13:52:56
594	109_cue	10	595		Complete_cue	B	C	A	S	F2	F2171.png	F2168.png	F2171.png	F2168.png	S	1	0.32178950741899826	0.2	infinite	0.5	2019-07-12-13:52:59
595	109_cue	10	596		Complete_cue	T	C	M	D	F1	F1154.png	F1157.png	F1162.png	F1141.png	D	1	0.7196978178762947	0.2	infinite	0.5	2019-07-12-13:53:03
596	109_cue	10	597		Complete_cue	B	I	M	D	F5	F5136.png	F5163.png	F5136.png	F5158.png	S	0	0.24701742882143662	0.2	infinite	0.5	2019-07-12-13:53:06
597	109_cue	10	598		Complete_cue	T	C	A	S	F5	F5139.png	F5136.png	F5139.png	F5136.png	D	0	0.00046227487382566324	0.2	infinite	0.5	2019-07-12-13:53:08
598	109_cue	10	599		Complete_cue	T	I	M	S	F2	F2171.png	F2168.png	F2171.png	F2177.png	S	1	0.4306319820425415	0.2	infinite	0.5	2019-07-12-13:53:12
599	109_cue	10	600		Complete_cue	T	I	M	S	M3	M3124.png	M3174.png	M3124.png	M3138.png	D	0	0.5763502612767297	0.2	infinite	0.5	2019-07-12-13:53:15
600	109_cue	10	601		Complete_cue	B	I	A	S	F2	F2168.png	F2177.png	F2171.png	F2177.png	S	1	0.7486819070877573	0.2	infinite	0.5	2019-07-12-13:53:30
601	109_cue	10	602		Complete_cue	T	I	M	S	F1	F1141.png	F1154.png	F1141.png	F1157.png	D	0	0.47557498043897795	0.2	infinite	0.5	2019-07-12-13:53:33
602	109_cue	10	603		Complete_cue	B	C	A	D	M3	M3186.png	M3124.png	M3174.png	M3138.png	S	0	1.0768126965513147	0.2	infinite	0.5	2019-07-12-13:53:37
603	109_cue	10	604		Complete_cue	T	I	A	D	F4	F4108.png	F4179.png	F4176.png	F4179.png	S	0	0.5356174609655682	0.2	infinite	0.5	2019-07-12-13:53:40
604	109_cue	10	605		Complete_cue	T	C	M	S	M4	M4183.png	M4147.png	M4183.png	M4147.png	S	1	0.36036235164147	0.2	infinite	0.5	2019-07-12-13:53:43
605	109_cue	10	606		Complete_cue	T	C	A	D	M5	M5116.png	M5185.png	M5159.png	M5126.png	D	1	0.5948630707175653	0.2	infinite	0.5	2019-07-12-13:53:47
606	109_cue	10	607		Complete_cue	B	I	M	D	F2	F2111.png	F2171.png	F2111.png	F2168.png	D	1	0.49715144362244246	0.2	infinite	0.5	2019-07-12-13:53:50
607	109_cue	10	608		Complete_cue	T	I	A	D	M1	M1110.png	M1190.png	M1173.png	M1190.png	S	0	0.46021757395192253	0.2	infinite	0.5	2019-07-12-13:53:53
608	109_cue	10	609		Complete_cue	B	C	M	D	M5	M5159.png	M5126.png	M5116.png	M5185.png	D	1	0.41918257868519504	0.2	infinite	0.5	2019-07-12-13:53:56
609	109_cue	10	610		Complete_cue	B	C	M	D	F1	F1162.png	F1141.png	F1154.png	F1157.png	D	1	0.5814529289650636	0.2	infinite	0.5	2019-07-12-13:54:00
610	109_cue	10	611		Complete_cue	B	C	A	S	M5	M5126.png	M5116.png	M5126.png	M5116.png	D	0	0.7389972324463088	0.2	infinite	0.5	2019-07-12-13:54:03
611	109_cue	10	612		Complete_cue	B	C	M	D	M4	M4147.png	M4115.png	M4114.png	M4183.png	S	0	0.4801441553345285	0.2	infinite	0.5	2019-07-12-13:54:06
612	109_cue	10	613		Complete_cue	T	I	M	D	M1	M1119.png	M1173.png	M1190.png	M1173.png	D	1	0.7143802132236488	0.2	infinite	0.5	2019-07-12-13:54:10
613	109_cue	10	614		Complete_cue	B	C	A	S	M3	M3186.png	M3124.png	M3186.png	M3124.png	S	1	0.48696599793447604	0.2	infinite	0.5	2019-07-12-13:54:13
614	109_cue	10	615		Complete_cue	T	C	A	S	M4	M4115.png	M4114.png	M4115.png	M4114.png	S	1	0.41481390468925383	0.2	infinite	0.5	2019-07-12-13:54:16
615	109_cue	10	616		Complete_cue	B	C	M	D	F2	F2168.png	F2177.png	F2111.png	F2171.png	D	1	0.46750682424863044	0.2	infinite	0.5	2019-07-12-13:54:20
616	109_cue	10	617		Complete_cue	B	C	M	S	F5	F5139.png	F5136.png	F5139.png	F5136.png	D	0	0.7809718551275182	0.2	infinite	0.5	2019-07-12-13:54:23
617	109_cue	10	618		Complete_cue	B	C	M	D	F5	F5139.png	F5136.png	F5163.png	F5158.png	D	1	0.5409286495896595	0.2	infinite	0.5	2019-07-12-13:54:26
618	109_cue	10	619		Complete_cue	T	I	M	S	M4	M4114.png	M4183.png	M4114.png	M4147.png	S	1	0.5980390049635389	0.2	infinite	0.5	2019-07-12-13:54:30
619	109_cue	10	620		Complete_cue	T	I	M	S	M3	M3186.png	M3124.png	M3186.png	M3174.png	D	0	0.5200037341287498	0.2	infinite	0.5	2019-07-12-13:54:33
620	109_cue	10	621		Complete_cue	B	C	A	S	F5	F5158.png	F5139.png	F5158.png	F5139.png	S	1	0.5092408458508544	0.2	infinite	0.5	2019-07-12-13:54:36
621	109_cue	10	622		Complete_cue	T	I	M	D	F2	F2168.png	F2177.png	F2171.png	F2177.png	S	0	0.4492923601460461	0.2	infinite	0.5	2019-07-12-13:54:40
622	109_cue	10	623		Complete_cue	T	I	A	S	F1	F1162.png	F1141.png	F1162.png	F1154.png	S	1	2.4799029126525056	0.2	infinite	0.5	2019-07-12-13:54:45
623	109_cue	10	624		Complete_cue	B	I	A	D	M2	M2118.png	M2134.png	M2118.png	M2161.png	D	1	0.4442082989407936	0.2	infinite	0.5	2019-07-12-13:54:48
624	109_cue	10	625		Complete_cue	T	C	A	S	F3	F3130.png	F3146.png	F3130.png	F3146.png	S	1	0.35387318013363256	0.2	infinite	0.5	2019-07-12-13:54:51
625	109_cue	10	626		Complete_cue	T	C	A	S	F1	F1141.png	F1154.png	F1141.png	F1154.png	S	1	0.3218180587473398	0.2	infinite	0.5	2019-07-12-13:54:54
626	109_cue	10	627		Complete_cue	T	C	M	D	F1	F1157.png	F1162.png	F1141.png	F1154.png	S	0	0.41394581599524827	0.2	infinite	0.5	2019-07-12-13:54:57
627	109_cue	10	628		Complete_cue	T	I	M	D	F3	F3132.png	F3130.png	F3184.png	F3130.png	S	0	0.49344426219340676	0.2	infinite	0.5	2019-07-12-13:55:01
628	109_cue	10	629		Complete_cue	T	I	M	S	M1	M1110.png	M1190.png	M1110.png	M1119.png	D	0	0.45735698752014287	0.2	infinite	0.5	2019-07-12-13:55:04
629	109_cue	10	630		Complete_cue	T	I	A	D	M2	M2161.png	M2127.png	M2134.png	M2127.png	S	0	1.0563481311551186	0.2	infinite	0.5	2019-07-12-13:55:08
630	109_cue	10	631		Complete_cue	B	C	A	D	F2	F2168.png	F2177.png	F2111.png	F2171.png	D	1	0.41678587113483445	0.2	infinite	0.5	2019-07-12-13:55:11
631	109_cue	10	632		Complete_cue	B	C	M	D	M1	M1190.png	M1119.png	M1173.png	M1110.png	D	1	0.7694307025585658	0.2	infinite	0.5	2019-07-12-13:55:14
632	109_cue	10	633		Complete_cue	B	C	A	S	F5	F5163.png	F5158.png	F5163.png	F5158.png	S	1	0.43609041852732844	0.2	infinite	0.5	2019-07-12-13:55:18
633	109_cue	10	634		Complete_cue	T	I	M	S	M1	M1190.png	M1119.png	M1190.png	M1173.png	D	0	0.6765849916896514	0.2	infinite	0.5	2019-07-12-13:55:21
634	109_cue	10	635		Complete_cue	B	C	A	S	F3	F3130.png	F3146.png	F3130.png	F3146.png	S	1	0.4836989560803886	0.2	infinite	0.5	2019-07-12-13:55:24
635	109_cue	10	636		Complete_cue	B	I	A	D	F2	F2177.png	F2111.png	F2177.png	F2171.png	D	1	0.43775698200261104	0.2	infinite	0.5	2019-07-12-13:55:28
636	109_cue	10	637		Complete_cue	T	C	A	D	M2	M2127.png	M2118.png	M2134.png	M2161.png	D	1	0.46771309957375706	0.2	infinite	0.5	2019-07-12-13:55:31
637	109_cue	10	638		Complete_cue	B	C	M	D	M4	M4115.png	M4114.png	M4183.png	M4147.png	D	1	0.5262705902391644	0.2	infinite	0.5	2019-07-12-13:55:34
638	109_cue	10	639		Complete_cue	B	I	M	S	M2	M2118.png	M2134.png	M2127.png	M2134.png	D	0	0.6108781201546662	0.2	infinite	0.5	2019-07-12-13:55:37
639	109_cue	10	640		Complete_cue	B	I	M	S	M1	M1190.png	M1119.png	M1110.png	M1119.png	S	1	0.34750751718001993	0.2	infinite	0.5	2019-07-12-13:55:41
0	109_cue	11	1		Complete_cue	T	C	M	S	M5	M5126.png	M5185.png	M5126.png	M5185.png	S	1	1.3412018440867541	0.2	infinite	0.5	2019-07-13-17:05:18
1	109_cue	11	2		Complete_cue	T	C	M	S	M2	M2118.png	M2127.png	M2118.png	M2127.png	S	1	1.2448507359076757	0.2	infinite	0.5	2019-07-13-17:05:22
2	109_cue	11	3		Complete_cue	B	C	M	D	M4	M4147.png	M4115.png	M4183.png	M4114.png	D	1	1.3880709343357012	0.2	infinite	0.5	2019-07-13-17:05:26
3	109_cue	11	4		Complete_cue	B	C	A	S	F2	F2168.png	F2177.png	F2168.png	F2177.png	S	1	1.6040190645871917	0.2	infinite	0.5	2019-07-13-17:05:30
4	109_cue	11	5		Complete_cue	T	C	M	S	F2	F2111.png	F2168.png	F2111.png	F2168.png	D	0	0.9515346018015407	0.2	infinite	0.5	2019-07-13-17:05:34
5	109_cue	11	6		Complete_cue	T	C	M	S	F5	F5136.png	F5139.png	F5136.png	F5139.png	D	0	0.8376648478297284	0.2	infinite	0.5	2019-07-13-17:05:37
6	109_cue	11	7		Complete_cue	B	C	M	D	F3	F3130.png	F3184.png	F3146.png	F3132.png	D	1	1.166793008975219	0.2	infinite	0.5	2019-07-13-17:05:41
7	109_cue	11	8		Complete_cue	T	I	A	S	M2	M2134.png	M2118.png	M2134.png	M2127.png	S	1	2.1716746444581077	0.2	infinite	0.5	2019-07-13-17:05:46
8	109_cue	11	9		Complete_cue	T	C	M	S	M1	M1173.png	M1190.png	M1173.png	M1190.png	S	1	5.570403244200861	0.2	infinite	0.5	2019-07-13-17:05:54
9	109_cue	11	10		Complete_cue	T	C	A	D	F1	F1162.png	F1141.png	F1154.png	F1157.png	D	1	1.7952581056015333	0.2	infinite	0.5	2019-07-13-17:05:58
10	109_cue	11	11		Complete_cue	B	I	M	S	F5	F5163.png	F5158.png	F5139.png	F5158.png	D	0	4.109353832114721	0.2	infinite	0.5	2019-07-13-17:06:05
11	109_cue	11	12		Complete_cue	T	C	A	S	M5	M5126.png	M5185.png	M5126.png	M5185.png	S	1	3.237704563041916	0.2	infinite	0.5	2019-07-13-17:06:11
12	109_cue	11	13		Complete_cue	T	C	A	S	M5	M5116.png	M5159.png	M5116.png	M5159.png	D	0	3.2069826924416702	0.2	infinite	0.5	2019-07-13-17:06:17
13	109_cue	11	14		Complete_cue	B	C	M	S	F4	F4108.png	F4113.png	F4108.png	F4113.png	D	0	2.716490445076488	0.2	infinite	0.5	2019-07-13-17:06:22
14	109_cue	11	15		Complete_cue	T	I	A	S	M3	M3138.png	M3174.png	M3138.png	M3186.png	S	1	0.9096738636289956	0.2	infinite	0.5	2019-07-13-17:06:26
15	109_cue	11	16		Complete_cue	B	I	M	D	F1	F1154.png	F1157.png	F1154.png	F1162.png	S	0	6.305797876484576	0.2	infinite	0.5	2019-07-13-17:06:35
16	109_cue	11	17		Complete_cue	T	C	A	S	M4	M4114.png	M4147.png	M4114.png	M4147.png	D	0	0.9661438993352931	0.2	infinite	0.5	2019-07-13-17:06:38
17	109_cue	11	18		Complete_cue	T	I	M	S	M4	M4147.png	M4115.png	M4147.png	M4183.png	D	0	2.072982968966244	0.2	infinite	0.5	2019-07-13-17:06:43
18	109_cue	11	19		Complete_cue	T	C	M	S	M3	M3124.png	M3138.png	M3124.png	M3138.png	D	0	1.086566343496088	0.2	infinite	0.5	2019-07-13-17:06:47
19	109_cue	11	20		Complete_cue	T	C	A	D	M5	M5159.png	M5126.png	M5185.png	M5116.png	S	0	3.5123282388958614	0.2	infinite	0.5	2019-07-13-17:06:53
20	109_cue	11	21		Complete_cue	B	I	M	D	M2	M2118.png	M2127.png	M2118.png	M2161.png	D	1	2.346005524843349	0.2	infinite	0.5	2019-07-13-17:06:58
21	109_cue	11	22		Complete_cue	B	C	A	D	M4	M4147.png	M4115.png	M4183.png	M4114.png	D	1	2.761711257524439	0.2	infinite	0.5	2019-07-13-17:07:03
22	109_cue	11	23		Complete_cue	T	I	M	S	M2	M2118.png	M2127.png	M2118.png	M2161.png	D	0	8.930651390517596	0.2	infinite	0.5	2019-07-13-17:07:15
23	109_cue	11	24		Complete_cue	B	I	A	D	F3	F3184.png	F3146.png	F3184.png	F3132.png	S	0	3.3679486640612595	0.2	infinite	0.5	2019-07-13-17:07:21
24	109_cue	11	25		Complete_cue	B	I	M	D	F4	F4113.png	F4176.png	F4113.png	F4179.png	D	1	1.113202486973023	0.2	infinite	0.5	2019-07-13-17:07:25
25	109_cue	11	26		Complete_cue	B	C	M	S	F2	F2171.png	F2111.png	F2171.png	F2111.png	S	1	3.1612729786138516	0.2	infinite	0.5	2019-07-13-17:07:31
26	109_cue	11	27		Complete_cue	B	I	A	S	M3	M3124.png	M3138.png	M3186.png	M3138.png	S	1	1.5133856004395057	0.2	infinite	0.5	2019-07-13-17:07:35
27	109_cue	11	28		Complete_cue	B	I	M	D	M2	M2161.png	M2134.png	M2161.png	M2118.png	D	1	0.9871964937628945	0.2	infinite	0.5	2019-07-13-17:07:38
28	109_cue	11	29		Complete_cue	T	C	M	D	F3	F3146.png	F3132.png	F3130.png	F3184.png	D	1	3.601074748978135	0.2	infinite	0.5	2019-07-13-17:07:45
29	109_cue	11	30		Complete_cue	T	C	M	D	M5	M5116.png	M5159.png	M5126.png	M5185.png	D	1	1.1433446693990845	0.2	infinite	0.5	2019-07-13-17:07:48
30	109_cue	11	31		Complete_cue	T	C	M	D	M4	M4115.png	M4183.png	M4114.png	M4147.png	D	1	0.6239016961771995	0.2	infinite	0.5	2019-07-13-17:07:52
31	109_cue	11	32		Complete_cue	B	I	M	S	F1	F1154.png	F1157.png	F1141.png	F1157.png	D	0	2.310227502763155	0.2	infinite	0.5	2019-07-13-17:07:57
32	109_cue	11	33		Complete_cue	B	I	M	D	F2	F2171.png	F2111.png	F2171.png	F2168.png	S	0	4.309335674755857	0.2	infinite	0.5	2019-07-13-17:08:04
33	109_cue	11	34		Complete_cue	T	I	M	D	F3	F3184.png	F3146.png	F3130.png	F3146.png	D	1	2.7154279507230967	0.2	infinite	0.5	2019-07-13-17:08:09
34	109_cue	11	35		Complete_cue	B	I	M	S	F5	F5139.png	F5163.png	F5136.png	F5163.png	S	1	1.2099148175911978	0.2	infinite	0.5	2019-07-13-17:08:13
35	109_cue	11	36		Complete_cue	B	I	A	S	M5	M5116.png	M5159.png	M5185.png	M5159.png	D	0	1.294917254082975	0.2	infinite	0.5	2019-07-13-17:08:17
36	109_cue	11	37		Complete_cue	B	I	A	D	F3	F3132.png	F3130.png	F3132.png	F3184.png	D	1	1.6998966698592994	0.2	infinite	0.5	2019-07-13-17:08:21
37	109_cue	11	38		Complete_cue	B	C	M	S	M5	M5185.png	M5116.png	M5185.png	M5116.png	S	1	1.0536328677699203	0.2	infinite	0.5	2019-07-13-17:08:25
38	109_cue	11	39		Complete_cue	B	I	A	D	F2	F2111.png	F2168.png	F2111.png	F2177.png	S	0	1.3489633141143713	0.2	infinite	0.5	2019-07-13-17:08:29
39	109_cue	11	40		Complete_cue	T	I	A	S	M2	M2118.png	M2127.png	M2118.png	M2161.png	D	0	2.0064564497588435	0.2	infinite	0.5	2019-07-13-17:08:33
40	109_cue	11	41		Complete_cue	T	C	A	S	M2	M2127.png	M2161.png	M2127.png	M2161.png	D	0	0.8745939054788323	0.2	infinite	0.5	2019-07-13-17:09:02
41	109_cue	11	42		Complete_cue	B	I	M	S	F3	F3184.png	F3146.png	F3130.png	F3146.png	D	0	1.2616703553503612	0.2	infinite	0.5	2019-07-13-17:09:06
42	109_cue	11	43		Complete_cue	T	C	M	S	M3	M3186.png	M3124.png	M3186.png	M3124.png	S	1	1.277489715910633	0.2	infinite	0.5	2019-07-13-17:09:10
43	109_cue	11	44		Complete_cue	B	C	M	S	F4	F4179.png	F4108.png	F4179.png	F4108.png	D	0	3.0084633835649583	0.2	infinite	0.5	2019-07-13-17:09:15
44	109_cue	11	45		Complete_cue	B	I	A	S	F2	F2171.png	F2111.png	F2177.png	F2111.png	S	1	1.0361023523437325	0.2	infinite	0.5	2019-07-13-17:09:19
45	109_cue	11	46		Complete_cue	B	I	A	S	M4	M4114.png	M4147.png	M4183.png	M4147.png	S	1	0.8334960331267212	0.2	infinite	0.5	2019-07-13-17:09:23
46	109_cue	11	47		Complete_cue	T	I	M	S	M5	M5126.png	M5185.png	M5126.png	M5116.png	S	1	1.4935292745794868	0.2	infinite	0.5	2019-07-13-17:09:27
47	109_cue	11	48		Complete_cue	T	C	M	D	F1	F1157.png	F1162.png	F1141.png	F1154.png	S	0	1.9736897907860111	0.2	infinite	0.5	2019-07-13-17:09:31
48	109_cue	11	49		Complete_cue	B	I	M	D	M1	M1110.png	M1119.png	M1110.png	M1173.png	S	0	1.1758553288091207	0.2	infinite	0.5	2019-07-13-17:09:35
49	109_cue	11	50		Complete_cue	T	I	A	S	F5	F5158.png	F5136.png	F5158.png	F5139.png	D	0	1.5062756781553617	0.2	infinite	0.5	2019-07-13-17:09:39
50	109_cue	11	51		Complete_cue	B	I	M	D	M4	M4115.png	M4183.png	M4115.png	M4114.png	S	0	1.3340264783182647	0.2	infinite	0.5	2019-07-13-17:09:43
51	109_cue	11	52		Complete_cue	T	I	A	S	M4	M4147.png	M4115.png	M4147.png	M4183.png	S	1	0.8994948339677649	0.2	infinite	0.5	2019-07-13-17:09:47
52	109_cue	11	53		Complete_cue	T	C	A	D	F3	F3184.png	F3146.png	F3132.png	F3130.png	S	0	1.7362335280631669	0.2	infinite	0.5	2019-07-13-17:09:51
53	109_cue	11	54		Complete_cue	T	I	A	S	F5	F5139.png	F5163.png	F5139.png	F5158.png	S	1	0.9029771335917758	0.2	infinite	0.5	2019-07-13-17:09:55
